Folder: YanLab/Data/IV_data/2024-05-15-A1-1_A1-6

Note: README.md
# YanLab
Projects for the Feng Yan Lab

File: A1-3-A_ITO+SnO2+PVSK+C6Br+Spiro+Carbon (Antisolvent) 2024-05-15 14-28-13.txt
Device Id	Operator	Recipe
A1-1-A_ITO+SnO2+PVSK+C6Br+Spiro+Carbon (Antisolvent)	Unknown	Jacob PVSKT _ 0.077cm^2 (nature recipe).IV

Sample Area	Irradiance	Pre sweep delay	Bias Direction	Max Reverse Bias	Max Forward Bias	Num Sweep Points	Dwell Time	Current Limit	PVIV 10A I-AMP	Average	Dark Current	Rshunt V-Lo	Rshunt V-Hi
0.077170	1.0000	0.5000	1	-0.1000	1.2000	101	10	130	0	1	0	-0.6000	-0.1000

Voc V	Isc A	Jsc mA/cm2	Imax A	Vmax V	Pmax mW	Fill Factor	Efficiency	R at Voc	R at Isc	Power W	RShunt ohms	Cell Temp start	Cell Temp end	Exposure	Time	Date
1.14305	0.00163466	21.1826	0.00137101	0.857127	1.17513	62.8917	15.2278	119.943	17432.680	0.00158971	NaN	NaN	NaN	8.422	14:28:13	05/15/2024

Vmeas	Imeas
-0.1	0.00163781
-0.08700000	0.00163746
-0.07400000	0.00163749
-0.06100000	0.00163676
-0.04800000	0.00163656
-0.03500000	0.00163563
-0.02200000	0.00163510
-0.00900000	0.00163492
0.00400000	0.00163566
0.01700000	0.00163443
0.03000000	0.00163346
0.04300000	0.00163313
0.05600000	0.00163238
0.06900000	0.00163204
0.08200000	0.00163127
0.09500000	0.00163046
0.108	0.00162936
0.121	0.00162917
0.134	0.00162873
0.147	0.00162787
0.16	0.00162667
0.173	0.00162580
0.186	0.00162558
0.199	0.00162479
0.212	0.00162335
0.225	0.00162222
0.238	0.00162162
0.251	0.00162060
0.264	0.00161960
0.277	0.00161827
0.29	0.00161705
0.303	0.00161558
0.316	0.00161506
0.329	0.00161358
0.342	0.00161137
0.355	0.00160993
0.368	0.00160820
0.381	0.00160618
0.394	0.00160477
0.407	0.00160256
0.42	0.00160059
0.433	0.00159812
0.446	0.00159602
0.459	0.00159342
0.472	0.00159059
0.485	0.00158751
0.498	0.00158474
0.511	0.00158262
0.524	0.00157900
0.537	0.00157584
0.55	0.00157164
0.563	0.00156760
0.576	0.00156343
0.589	0.00155928
0.602	0.00155473
0.615	0.00154987
0.628	0.00154358
0.641	0.00153886
0.654	0.00153303
0.667	0.00152705
0.68	0.00108530
0.693	0.00151201
0.706	0.00150495
0.719	0.00149731
0.732	0.00148966
0.745	0.00149682
0.758	0.00148470
0.771	0.00147327
0.784	0.00146048
0.797	0.00144742
0.81	0.00143338
0.823	0.00141804
0.836	0.00140184
0.849	0.00138352
0.862	0.00136334
0.875	0.00134150
0.888	0.00131721
0.901	0.00129006
0.914	0.00126004
0.927	0.00122673
0.94	0.00118963
0.953	0.00114819
0.966	0.00110208
0.979	0.00105173
0.992	0.00100305
1.005	0.00094120
1.018	0.00087478
1.031	0.00080319
1.044	0.00072677
1.057	0.00064542
1.07	0.00055944
1.083	0.00046938
1.096	0.00037508
1.109	0.00027689
1.122	0.00017528
1.135	0.00007387
1.148	-0.00003504
1.161	-0.00014860
1.174	-0.00026501
1.187	-0.00038433
1.2	-0.00050658

File: A1-3-B_ITO+SnO2+PVSK+C6Br+Spiro+Carbon (Antisolvent) 2024-05-15 14-29-42.txt
Device Id	Operator	Recipe
A1-1-B_ITO+SnO2+PVSK+C6Br+Spiro+Carbon (Antisolvent)	Unknown	Jacob PVSKT _ 0.077cm^2 (nature recipe).IV

Sample Area	Irradiance	Pre sweep delay	Bias Direction	Max Reverse Bias	Max Forward Bias	Num Sweep Points	Dwell Time	Current Limit	PVIV 10A I-AMP	Average	Dark Current	Rshunt V-Lo	Rshunt V-Hi
0.077170	1.0000	0.5000	1	-0.1000	1.2000	101	10	130	0	1	0	-0.6000	-0.1000

Voc V	Isc A	Jsc mA/cm2	Imax A	Vmax V	Pmax mW	Fill Factor	Efficiency	R at Voc	R at Isc	Power W	RShunt ohms	Cell Temp start	Cell Temp end	Exposure	Time	Date
1.13217	0.00165594	21.4584	0.00129260	0.81761	1.05684	56.3706	13.6950	137.817	10419.071	0.00153025	NaN	NaN	NaN	8.219	14:29:42	05/15/2024

Vmeas	Imeas
-0.1	0.00166150
-0.08700000	0.00166048
-0.07400000	0.00165979
-0.06100000	0.00165932
-0.04800000	0.00165854
-0.03500000	0.00165789
-0.02200000	0.00165760
-0.00900000	0.00165642
0.00400000	0.00165639
0.01700000	0.00165543
0.03000000	0.00165408
0.04300000	0.00165339
0.05600000	0.00165213
0.06900000	0.00165116
0.08200000	0.00165055
0.09500000	0.00164899
0.108	0.00164838
0.121	0.00164760
0.134	0.00164588
0.147	0.00164443
0.16	0.00164332
0.173	0.00164185
0.186	0.00164004
0.199	0.00163932
0.212	0.00163750
0.225	0.00163587
0.238	0.00163340
0.251	0.00163182
0.264	0.00163010
0.277	0.00162787
0.29	0.00162586
0.303	0.00162328
0.316	0.00162060
0.329	0.00161791
0.342	0.00161563
0.355	0.00161263
0.368	0.00160902
0.381	0.00160580
0.394	0.00160205
0.407	0.00159902
0.42	0.00159512
0.433	0.00159100
0.446	0.00158631
0.459	0.00158142
0.472	0.00157680
0.485	0.00157172
0.498	0.00156650
0.511	0.00156083
0.524	0.00155472
0.537	0.00154820
0.55	0.00154169
0.563	0.00153494
0.576	0.00152737
0.589	0.00151982
0.602	0.00151171
0.615	0.00150315
0.628	0.00149415
0.641	0.00148468
0.654	0.00147440
0.667	0.00146421
0.68	0.00145343
0.693	0.00144187
0.706	0.00142964
0.719	0.00141712
0.732	0.00140366
0.745	0.00138954
0.758	0.00137419
0.771	0.00135811
0.784	0.00134149
0.797	0.00132303
0.81	0.00130426
0.823	0.00128383
0.836	0.00126200
0.849	0.00123856
0.862	0.00121339
0.875	0.00118626
0.888	0.00115711
0.901	0.00112607
0.914	0.00109192
0.927	0.00105509
0.94	0.00101576
0.953	0.00098236
0.966	0.00093405
0.979	0.00088290
0.992	0.00082851
1.005	0.00077039
1.018	0.00070835
1.031	0.00064244
1.044	0.00057234
1.057	0.00049839
1.07	0.00042055
1.083	0.00033924
1.096	0.00025431
1.109	0.00016603
1.122	0.00008010
1.135	-0.00001562
1.148	-0.00010673
1.161	-0.00020871
1.174	-0.00031295
1.187	-0.00041948
1.2	-0.00052838

File: A1-3-C_ITO+SnO2+PVSK+C6Br+Spiro+Carbon (Antisolvent) 2024-05-15 14-31-10.txt
Device Id	Operator	Recipe
A1-1-C_ITO+SnO2+PVSK+C6Br+Spiro+Carbon (Antisolvent)	Unknown	Jacob PVSKT _ 0.077cm^2 (nature recipe).IV

Sample Area	Irradiance	Pre sweep delay	Bias Direction	Max Reverse Bias	Max Forward Bias	Num Sweep Points	Dwell Time	Current Limit	PVIV 10A I-AMP	Average	Dark Current	Rshunt V-Lo	Rshunt V-Hi
0.077170	1.0000	0.5000	1	-0.1000	1.2000	101	10	130	0	1	0	-0.6000	-0.1000

Voc V	Isc A	Jsc mA/cm2	Imax A	Vmax V	Pmax mW	Fill Factor	Efficiency	R at Voc	R at Isc	Power W	RShunt ohms	Cell Temp start	Cell Temp end	Exposure	Time	Date
1.13494	0.00168625	21.8512	0.00136905	0.840646	1.15088	60.1360	14.9136	124.991	13673.598	0.00160539	NaN	NaN	NaN	8.422	14:31:10	05/15/2024

Vmeas	Imeas
-0.1	0.00169104
-0.08700000	0.00169006
-0.07400000	0.00168946
-0.06100000	0.00168900
-0.04800000	0.00168833
-0.03500000	0.00168750
-0.02200000	0.00168739
-0.00900000	0.00168656
0.00400000	0.00168675
0.01700000	0.00168605
0.03000000	0.00168500
0.04300000	0.00168418
0.05600000	0.00168358
0.06900000	0.00168243
0.08200000	0.00168186
0.09500000	0.00168099
0.108	0.00168008
0.121	0.00167911
0.134	0.00167857
0.147	0.00167714
0.16	0.00167608
0.173	0.00167509
0.186	0.00167437
0.199	0.00167286
0.212	0.00167212
0.225	0.00167047
0.238	0.00166907
0.251	0.00166796
0.264	0.00166653
0.277	0.00166535
0.29	0.00166358
0.303	0.00166170
0.316	0.00165989
0.329	0.00165796
0.342	0.00165591
0.355	0.00165390
0.368	0.00165201
0.381	0.00164971
0.394	0.00164715
0.407	0.00164477
0.42	0.00164208
0.433	0.00163909
0.446	0.00163578
0.459	0.00163258
0.472	0.00162906
0.485	0.00162504
0.498	0.00162115
0.511	0.00161726
0.524	0.00161346
0.537	0.00160875
0.55	0.00160359
0.563	0.00159837
0.576	0.00159299
0.589	0.00158780
0.602	0.00158158
0.615	0.00157525
0.628	0.00156890
0.641	0.00156150
0.654	0.00155407
0.667	0.00154608
0.68	0.00153743
0.693	0.00152856
0.706	0.00151913
0.719	0.00150852
0.732	0.00149806
0.745	0.00148634
0.758	0.00147392
0.771	0.00146049
0.784	0.00144609
0.797	0.00143079
0.81	0.00141396
0.823	0.00139550
0.836	0.00137582
0.849	0.00135458
0.862	0.00133057
0.875	0.00130510
0.888	0.00127681
0.901	0.00124587
0.914	0.00121220
0.927	0.00117527
0.94	0.00113433
0.953	0.00108968
0.966	0.00104093
0.979	0.00099914
0.992	0.00093928
1.005	0.00087581
1.018	0.00080793
1.031	0.00073545
1.044	0.00065814
1.057	0.00057642
1.07	0.00049007
1.083	0.00039949
1.096	0.00030481
1.109	0.00020630
1.122	0.00010394
1.135	0.00000435
1.148	-0.00009238
1.161	-0.00020556
1.174	-0.00032471
1.187	-0.00044602
1.2	-0.00056956

File: A1-3-D_ITO+SnO2+PVSK+C6Br+Spiro+Carbon (Antisolvent) 2024-05-15 14-33-04.txt
Device Id	Operator	Recipe
A1-1-D_ITO+SnO2+PVSK+C6Br+Spiro+Carbon (Antisolvent)	Unknown	Jacob PVSKT _ 0.077cm^2 (nature recipe).IV

Sample Area	Irradiance	Pre sweep delay	Bias Direction	Max Reverse Bias	Max Forward Bias	Num Sweep Points	Dwell Time	Current Limit	PVIV 10A I-AMP	Average	Dark Current	Rshunt V-Lo	Rshunt V-Hi
0.077170	1.0000	0.5000	1	-0.1000	1.2000	101	10	130	0	1	0	-0.6000	-0.1000

Voc V	Isc A	Jsc mA/cm2	Imax A	Vmax V	Pmax mW	Fill Factor	Efficiency	R at Voc	R at Isc	Power W	RShunt ohms	Cell Temp start	Cell Temp end	Exposure	Time	Date
1.11462	0.00172192	22.3133	0.00147776	0.837444	1.23754	64.4794	16.0366	105.059	26342.912	0.00166216	NaN	NaN	NaN	8.234	14:33:04	05/15/2024

Vmeas	Imeas
-0.1	0.00172337
-0.08700000	0.00172295
-0.07400000	0.00172338
-0.06100000	0.00172300
-0.04800000	0.00172284
-0.03500000	0.00172242
-0.02200000	0.00172257
-0.00900000	0.00172225
0.00400000	0.00172284
0.01700000	0.00172178
0.03000000	0.00172173
0.04300000	0.00172169
0.05600000	0.00172093
0.06900000	0.00172006
0.08200000	0.00171966
0.09500000	0.00171985
0.108	0.00171910
0.121	0.00171877
0.134	0.00171778
0.147	0.00171716
0.16	0.00171725
0.173	0.00171638
0.186	0.00171563
0.199	0.00171511
0.212	0.00171455
0.225	0.00171381
0.238	0.00171277
0.251	0.00171213
0.264	0.00171140
0.277	0.00171079
0.29	0.00170929
0.303	0.00170882
0.316	0.00170796
0.329	0.00170738
0.342	0.00170591
0.355	0.00170486
0.368	0.00170374
0.381	0.00170250
0.394	0.00170135
0.407	0.00170023
0.42	0.00169861
0.433	0.00169715
0.446	0.00169485
0.459	0.00169323
0.472	0.00169162
0.485	0.00169089
0.498	0.00168782
0.511	0.00168558
0.524	0.00168347
0.537	0.00168068
0.55	0.00167829
0.563	0.00167505
0.576	0.00167176
0.589	0.00166826
0.602	0.00166540
0.615	0.00166115
0.628	0.00165690
0.641	0.00165183
0.654	0.00164591
0.667	0.00164090
0.68	0.00163490
0.693	0.00162710
0.706	0.00161942
0.719	0.00161100
0.732	0.00160179
0.745	0.00159156
0.758	0.00158000
0.771	0.00156755
0.784	0.00155387
0.797	0.00153833
0.81	0.00152105
0.823	0.00150159
0.836	0.00148055
0.849	0.00145634
0.862	0.00142975
0.875	0.00140006
0.888	0.00136700
0.901	0.00133010
0.914	0.00129051
0.927	0.00124484
0.94	0.00119508
0.953	0.00114032
0.966	0.00108065
0.979	0.00101513
0.992	0.00097580
1.005	0.00089487
1.018	0.00080888
1.031	0.00071754
1.044	0.00062058
1.057	0.00051744
1.07	0.00040840
1.083	0.00029354
1.096	0.00017289
1.109	0.00006575
1.122	-0.00006959
1.135	-0.00018184
1.148	-0.00033097
1.161	-0.00048411
1.174	-0.00064137
1.187	-0.00080266
1.2	-0.00096753

File: A1-3-E_ITO+SnO2+PVSK+C6Br+Spiro+Carbon (Antisolvent) 2024-05-15 14-34-35.txt
Device Id	Operator	Recipe
A1-1-E_ITO+SnO2+PVSK+C6Br+Spiro+Carbon (Antisolvent)	Unknown	Jacob PVSKT _ 0.077cm^2 (nature recipe).IV

Sample Area	Irradiance	Pre sweep delay	Bias Direction	Max Reverse Bias	Max Forward Bias	Num Sweep Points	Dwell Time	Current Limit	PVIV 10A I-AMP	Average	Dark Current	Rshunt V-Lo	Rshunt V-Hi
0.077170	1.0000	0.5000	1	-0.1000	1.2000	101	10	130	0	1	0	-0.6000	-0.1000

Voc V	Isc A	Jsc mA/cm2	Imax A	Vmax V	Pmax mW	Fill Factor	Efficiency	R at Voc	R at Isc	Power W	RShunt ohms	Cell Temp start	Cell Temp end	Exposure	Time	Date
1.05335	0.00168674	21.8575	0.00114557	0.741246	0.849152	47.7930	11.0037	140.922	3484.394	0.00133716	NaN	NaN	NaN	8.422	14:34:35	05/15/2024

Vmeas	Imeas
-0.1	0.00170521
-0.08700000	0.00170265
-0.07400000	0.00170020
-0.06100000	0.00169795
-0.04800000	0.00169570
-0.03500000	0.00169346
-0.02200000	0.00169184
-0.00900000	0.00168977
0.00400000	0.00168856
0.01700000	0.00168493
0.03000000	0.00168227
0.04300000	0.00167979
0.05600000	0.00167703
0.06900000	0.00167452
0.08200000	0.00167137
0.09500000	0.00166793
0.108	0.00166405
0.121	0.00165994
0.134	0.00165585
0.147	0.00165132
0.16	0.00164636
0.173	0.00164117
0.186	0.00163653
0.199	0.00163021
0.212	0.00162462
0.225	0.00161865
0.238	0.00161235
0.251	0.00160577
0.264	0.00159921
0.277	0.00159269
0.29	0.00158477
0.303	0.00157754
0.316	0.00156899
0.329	0.00156036
0.342	0.00155173
0.355	0.00154413
0.368	0.00153359
0.381	0.00152508
0.394	0.00151585
0.407	0.00150530
0.42	0.00149482
0.433	0.00148556
0.446	0.00147483
0.459	0.00146391
0.472	0.00145187
0.485	0.00144104
0.498	0.00142871
0.511	0.00141660
0.524	0.00140449
0.537	0.00139192
0.55	0.00137962
0.563	0.00136582
0.576	0.00135331
0.589	0.00134085
0.602	0.00132558
0.615	0.00131031
0.628	0.00129446
0.641	0.00128038
0.654	0.00126507
0.667	0.00124934
0.68	0.00123331
0.693	0.00121639
0.706	0.00119725
0.719	0.00117985
0.732	0.00116006
0.745	0.00114137
0.758	0.00111867
0.771	0.00109731
0.784	0.00107451
0.797	0.00105007
0.81	0.00102565
0.823	0.00101448
0.836	0.00098265
0.849	0.00095110
0.862	0.00091733
0.875	0.00088293
0.888	0.00084413
0.901	0.00080326
0.914	0.00075753
0.927	0.00070874
0.94	0.00065682
0.953	0.00060136
0.966	0.00054221
0.979	0.00047586
0.992	0.00040338
1.005	0.00032538
1.018	0.00024462
1.031	0.00015342
1.044	0.00008180
1.057	-0.00002381
1.07	-0.00007898
1.083	-0.00020497
1.096	-0.00033565
1.109	-0.00047129
1.122	-0.00061255
1.135	-0.00075701
1.148	-0.00090788
1.161	-0.00104161
1.174	-0.00120692
1.187	-0.00137215
1.2	-0.00154367

File: A1-4-A_ITO+SnO2+PVSK+C6Br+Spiro+Carbon (Antisolvent) 2024-05-15 14-37-20.txt
Device Id	Operator	Recipe
A1-4-A_ITO+SnO2+PVSK+C6Br+Spiro+Carbon (Antisolvent)	Unknown	Jacob PVSKT _ 0.077cm^2 (nature recipe).IV

Sample Area	Irradiance	Pre sweep delay	Bias Direction	Max Reverse Bias	Max Forward Bias	Num Sweep Points	Dwell Time	Current Limit	PVIV 10A I-AMP	Average	Dark Current	Rshunt V-Lo	Rshunt V-Hi
0.077170	1.0000	0.5000	1	-0.1000	1.2000	101	10	130	0	1	0	-0.6000	-0.1000

Voc V	Isc A	Jsc mA/cm2	Imax A	Vmax V	Pmax mW	Fill Factor	Efficiency	R at Voc	R at Isc	Power W	RShunt ohms	Cell Temp start	Cell Temp end	Exposure	Time	Date
1.14519	0.00184141	23.8617	0.00132051	0.801273	1.05809	50.1756	13.7111	164.491	2849.281	0.00160171	NaN	NaN	NaN	8.422	14:37:20	05/15/2024

Vmeas	Imeas
-0.1	0.00187407
-0.08700000	0.00187062
-0.07400000	0.00186744
-0.06100000	0.00186334
-0.04800000	0.00185843
-0.03500000	0.00185454
-0.02200000	0.00185095
-0.00900000	0.00184435
0.00400000	0.00184035
0.01700000	0.00183534
0.03000000	0.00182996
0.04300000	0.00182576
0.05600000	0.00182110
0.06900000	0.00181848
0.08200000	0.00181453
0.09500000	0.00180894
0.108	0.00180417
0.121	0.00179874
0.134	0.00179391
0.147	0.00178990
0.16	0.00178574
0.173	0.00178159
0.186	0.00177702
0.199	0.00177111
0.212	0.00176694
0.225	0.00176183
0.238	0.00175720
0.251	0.00175441
0.264	0.00174888
0.277	0.00174395
0.29	0.00173838
0.303	0.00173358
0.316	0.00172770
0.329	0.00172177
0.342	0.00171536
0.355	0.00170946
0.368	0.00170385
0.381	0.00169712
0.394	0.00168945
0.407	0.00168289
0.42	0.00167634
0.433	0.00166890
0.446	0.00166194
0.459	0.00165425
0.472	0.00164626
0.485	0.00163838
0.498	0.00163014
0.511	0.00162144
0.524	0.00161250
0.537	0.00160354
0.55	0.00159414
0.563	0.00158472
0.576	0.00157505
0.589	0.00156517
0.602	0.00155412
0.615	0.00154304
0.628	0.00153165
0.641	0.00151933
0.654	0.00150652
0.667	0.00149393
0.68	0.00148008
0.693	0.00146605
0.706	0.00145084
0.719	0.00143560
0.732	0.00141977
0.745	0.00140336
0.758	0.00138564
0.771	0.00136717
0.784	0.00134826
0.797	0.00132710
0.81	0.00130577
0.823	0.00128279
0.836	0.00125812
0.849	0.00123268
0.862	0.00120499
0.875	0.00117555
0.888	0.00114426
0.901	0.00111078
0.914	0.00107502
0.927	0.00103669
0.94	0.00100093
0.953	0.00095650
0.966	0.00090968
0.979	0.00085989
0.992	0.00080753
1.005	0.00075232
1.018	0.00069430
1.031	0.00063365
1.044	0.00057051
1.057	0.00050485
1.07	0.00043692
1.083	0.00036685
1.096	0.00029476
1.109	0.00022094
1.122	0.00014520
1.135	0.00006976
1.148	-0.00000822
1.161	-0.00008862
1.174	-0.00017284
1.187	-0.00025824
1.2	-0.00034511

File: A1-4-B_ITO+SnO2+PVSK+C6Br+Spiro+Carbon (Antisolvent) 2024-05-15 14-38-17.txt
Device Id	Operator	Recipe
A1-4-B_ITO+SnO2+PVSK+C6Br+Spiro+Carbon (Antisolvent)	Unknown	Jacob PVSKT _ 0.077cm^2 (nature recipe).IV

Sample Area	Irradiance	Pre sweep delay	Bias Direction	Max Reverse Bias	Max Forward Bias	Num Sweep Points	Dwell Time	Current Limit	PVIV 10A I-AMP	Average	Dark Current	Rshunt V-Lo	Rshunt V-Hi
0.077170	1.0000	0.5000	1	-0.1000	1.2000	101	10	130	0	1	0	-0.6000	-0.1000

Voc V	Isc A	Jsc mA/cm2	Imax A	Vmax V	Pmax mW	Fill Factor	Efficiency	R at Voc	R at Isc	Power W	RShunt ohms	Cell Temp start	Cell Temp end	Exposure	Time	Date
1.14213	0.00187037	24.237	0.00137534	0.796139	1.09496	51.2573	14.1890	163.309	3049.672	0.00163911	NaN	NaN	NaN	8.219	14:38:17	05/15/2024

Vmeas	Imeas
-0.1	0.00190024
-0.08700000	0.00189570
-0.07400000	0.00189286
-0.06100000	0.00188931
-0.04800000	0.00188642
-0.03500000	0.00188014
-0.02200000	0.00187727
-0.00900000	0.00187374
0.00400000	0.00187036
0.01700000	0.00186633
0.03000000	0.00186251
0.04300000	0.00185855
0.05600000	0.00185424
0.06900000	0.00184960
0.08200000	0.00184427
0.09500000	0.00183992
0.108	0.00183534
0.121	0.00183090
0.134	0.00182673
0.147	0.00182253
0.16	0.00181780
0.173	0.00181438
0.186	0.00181047
0.199	0.00180583
0.212	0.00180135
0.225	0.00179671
0.238	0.00179208
0.251	0.00178880
0.264	0.00178483
0.277	0.00177995
0.29	0.00177400
0.303	0.00176945
0.316	0.00176445
0.329	0.00175928
0.342	0.00175441
0.355	0.00174881
0.368	0.00174344
0.381	0.00173839
0.394	0.00173213
0.407	0.00172589
0.42	0.00171994
0.433	0.00171309
0.446	0.00170732
0.459	0.00170096
0.472	0.00169351
0.485	0.00168639
0.498	0.00167901
0.511	0.00167102
0.524	0.00166307
0.537	0.00165478
0.55	0.00164541
0.563	0.00163570
0.576	0.00162670
0.589	0.00161608
0.602	0.00160611
0.615	0.00159565
0.628	0.00158351
0.641	0.00157160
0.654	0.00155963
0.667	0.00154650
0.68	0.00153237
0.693	0.00151878
0.706	0.00150383
0.719	0.00148819
0.732	0.00147156
0.745	0.00145409
0.758	0.00143606
0.771	0.00141613
0.784	0.00139546
0.797	0.00137377
0.81	0.00135051
0.823	0.00132566
0.836	0.00129964
0.849	0.00127139
0.862	0.00124104
0.875	0.00120880
0.888	0.00117431
0.901	0.00113789
0.914	0.00109852
0.927	0.00105675
0.94	0.00101237
0.953	0.00097278
0.966	0.00092208
0.979	0.00086857
0.992	0.00081250
1.005	0.00075384
1.018	0.00069292
1.031	0.00062940
1.044	0.00056339
1.057	0.00049516
1.07	0.00042499
1.083	0.00035295
1.096	0.00027903
1.109	0.00020339
1.122	0.00012609
1.135	0.00005081
1.148	-0.00003018
1.161	-0.00010769
1.174	-0.00019221
1.187	-0.00027812
1.2	-0.00036531

File: A1-4-C_ITO+SnO2+PVSK+C6Br+Spiro+Carbon (Antisolvent) 2024-05-15 14-39-16.txt
Device Id	Operator	Recipe
A1-4-C_ITO+SnO2+PVSK+C6Br+Spiro+Carbon (Antisolvent)	Unknown	Jacob PVSKT _ 0.077cm^2 (nature recipe).IV

Sample Area	Irradiance	Pre sweep delay	Bias Direction	Max Reverse Bias	Max Forward Bias	Num Sweep Points	Dwell Time	Current Limit	PVIV 10A I-AMP	Average	Dark Current	Rshunt V-Lo	Rshunt V-Hi
0.077170	1.0000	0.5000	1	-0.1000	1.2000	101	10	130	0	1	0	-0.6000	-0.1000

Voc V	Isc A	Jsc mA/cm2	Imax A	Vmax V	Pmax mW	Fill Factor	Efficiency	R at Voc	R at Isc	Power W	RShunt ohms	Cell Temp start	Cell Temp end	Exposure	Time	Date
1.13189	0.00163222	21.1509	0.00130710	0.802426	1.04885	56.7713	13.5914	162.453	14475.203	0.00150820	NaN	NaN	NaN	8.234	14:39:16	05/15/2024

Vmeas	Imeas
-0.1	0.00163526
-0.08700000	0.00163508
-0.07400000	0.00163415
-0.06100000	0.00163406
-0.04800000	0.00163404
-0.03500000	0.00163354
-0.02200000	0.00163285
-0.00900000	0.00163267
0.00400000	0.00163265
0.01700000	0.00163181
0.03000000	0.00163095
0.04300000	0.00163076
0.05600000	0.00163000
0.06900000	0.00162983
0.08200000	0.00162891
0.09500000	0.00162806
0.108	0.00162728
0.121	0.00162659
0.134	0.00162572
0.147	0.00162426
0.16	0.00162382
0.173	0.00162252
0.186	0.00162067
0.199	0.00162023
0.212	0.00161945
0.225	0.00161750
0.238	0.00161582
0.251	0.00161455
0.264	0.00161353
0.277	0.00161130
0.29	0.00160971
0.303	0.00160836
0.316	0.00160625
0.329	0.00160448
0.342	0.00160188
0.355	0.00159923
0.368	0.00159739
0.381	0.00159407
0.394	0.00159130
0.407	0.00158864
0.42	0.00158513
0.433	0.00158212
0.446	0.00157822
0.459	0.00157367
0.472	0.00156953
0.485	0.00156541
0.498	0.00156080
0.511	0.00155606
0.524	0.00155094
0.537	0.00154465
0.55	0.00153874
0.563	0.00153222
0.576	0.00152579
0.589	0.00151875
0.602	0.00151095
0.615	0.00150265
0.628	0.00149420
0.641	0.00148497
0.654	0.00147502
0.667	0.00146459
0.68	0.00145373
0.693	0.00144190
0.706	0.00142954
0.719	0.00141674
0.732	0.00140228
0.745	0.00138702
0.758	0.00137095
0.771	0.00135380
0.784	0.00133509
0.797	0.00131507
0.81	0.00129403
0.823	0.00127101
0.836	0.00124563
0.849	0.00121882
0.862	0.00118952
0.875	0.00115825
0.888	0.00112470
0.901	0.00108876
0.914	0.00105071
0.927	0.00100925
0.94	0.00097637
0.953	0.00092759
0.966	0.00087579
0.979	0.00082157
0.992	0.00076466
1.005	0.00070495
1.018	0.00064301
1.031	0.00057793
1.044	0.00051070
1.057	0.00044102
1.07	0.00036920
1.083	0.00029525
1.096	0.00021925
1.109	0.00014140
1.122	0.00006813
1.135	-0.00001443
1.148	-0.00009837
1.161	-0.00017787
1.174	-0.00026623
1.187	-0.00035581
1.2	-0.00044678

File: A1-4-D_ITO+SnO2+PVSK+C6Br+Spiro+Carbon (Antisolvent) 2024-05-15 14-41-54.txt
Device Id	Operator	Recipe
A1-4-D_ITO+SnO2+PVSK+C6Br+Spiro+Carbon (Antisolvent)	Unknown	Jacob PVSKT _ 0.077cm^2 (nature recipe).IV

Sample Area	Irradiance	Pre sweep delay	Bias Direction	Max Reverse Bias	Max Forward Bias	Num Sweep Points	Dwell Time	Current Limit	PVIV 10A I-AMP	Average	Dark Current	Rshunt V-Lo	Rshunt V-Hi
0.077170	1.0000	0.5000	1	-0.1000	1.2000	101	10	130	0	1	0	-0.6000	-0.1000

Voc V	Isc A	Jsc mA/cm2	Imax A	Vmax V	Pmax mW	Fill Factor	Efficiency	R at Voc	R at Isc	Power W	RShunt ohms	Cell Temp start	Cell Temp end	Exposure	Time	Date
1.12293	0.00172566	22.3618	0.00150359	0.835593	1.25639	64.8365	16.2808	123.397	37202.584	0.00167467	NaN	NaN	NaN	8.437	14:41:54	05/15/2024

Vmeas	Imeas
-0.1	0.00172638
-0.08700000	0.00172620
-0.07400000	0.00172666
-0.06100000	0.00172648
-0.04800000	0.00172585
-0.03500000	0.00172592
-0.02200000	0.00172611
-0.00900000	0.00172585
0.00400000	0.00172609
0.01700000	0.00172571
0.03000000	0.00172530
0.04300000	0.00172475
0.05600000	0.00172482
0.06900000	0.00172526
0.08200000	0.00172496
0.09500000	0.00172472
0.108	0.00172412
0.121	0.00172321
0.134	0.00172320
0.147	0.00172341
0.16	0.00172254
0.173	0.00172160
0.186	0.00172165
0.199	0.00172031
0.212	0.00171964
0.225	0.00172002
0.238	0.00171959
0.251	0.00171857
0.264	0.00171814
0.277	0.00171790
0.29	0.00171684
0.303	0.00171629
0.316	0.00171524
0.329	0.00171490
0.342	0.00171398
0.355	0.00171283
0.368	0.00171209
0.381	0.00171088
0.394	0.00171034
0.407	0.00170926
0.42	0.00170804
0.433	0.00170721
0.446	0.00170590
0.459	0.00170453
0.472	0.00170280
0.485	0.00170079
0.498	0.00169941
0.511	0.00169743
0.524	0.00169549
0.537	0.00169345
0.55	0.00169141
0.563	0.00168912
0.576	0.00168634
0.589	0.00168270
0.602	0.00167972
0.615	0.00167660
0.628	0.00167275
0.641	0.00166851
0.654	0.00166346
0.667	0.00165803
0.68	0.00165283
0.693	0.00164641
0.706	0.00163993
0.719	0.00163227
0.732	0.00162365
0.745	0.00161421
0.758	0.00160300
0.771	0.00159066
0.784	0.00157684
0.797	0.00156239
0.81	0.00154493
0.823	0.00152482
0.836	0.00150276
0.849	0.00147821
0.862	0.00144934
0.875	0.00141800
0.888	0.00138281
0.901	0.00134438
0.914	0.00130092
0.927	0.00125091
0.94	0.00119745
0.953	0.00114009
0.966	0.00107882
0.979	0.00101147
0.992	0.00096347
1.005	0.00088265
1.018	0.00079877
1.031	0.00070959
1.044	0.00061625
1.057	0.00051836
1.07	0.00041739
1.083	0.00031199
1.096	0.00020328
1.109	0.00013647
1.122	0.00002592
1.135	-0.00010144
1.148	-0.00021517
1.161	-0.00035062
1.174	-0.00048898
1.187	-0.00062837
1.2	-0.00077270

File: A1-4-E_ITO+SnO2+PVSK+C6Br+Spiro+Carbon (Antisolvent) 2024-05-15 14-43-06.txt
Device Id	Operator	Recipe
A1-4-E_ITO+SnO2+PVSK+C6Br+Spiro+Carbon (Antisolvent)	Unknown	Jacob PVSKT _ 0.077cm^2 (nature recipe).IV

Sample Area	Irradiance	Pre sweep delay	Bias Direction	Max Reverse Bias	Max Forward Bias	Num Sweep Points	Dwell Time	Current Limit	PVIV 10A I-AMP	Average	Dark Current	Rshunt V-Lo	Rshunt V-Hi
0.077170	1.0000	0.5000	1	-0.1000	1.2000	101	10	130	0	1	0	-0.6000	-0.1000

Voc V	Isc A	Jsc mA/cm2	Imax A	Vmax V	Pmax mW	Fill Factor	Efficiency	R at Voc	R at Isc	Power W	RShunt ohms	Cell Temp start	Cell Temp end	Exposure	Time	Date
1.1109	0.00163770	21.222	0.00140108	0.810562	1.13566	62.4226	14.7164	135.577	27817.639	0.00154814	NaN	NaN	NaN	8.422	14:43:06	05/15/2024

Vmeas	Imeas
-0.1	0.00163866
-0.08700000	0.00163842
-0.07400000	0.00163836
-0.06100000	0.00163910
-0.04800000	0.00163851
-0.03500000	0.00163853
-0.02200000	0.00163828
-0.00900000	0.00163749
0.00400000	0.00163814
0.01700000	0.00163737
0.03000000	0.00163744
0.04300000	0.00163747
0.05600000	0.00163698
0.06900000	0.00163639
0.08200000	0.00163613
0.09500000	0.00163529
0.108	0.00163570
0.121	0.00163514
0.134	0.00163425
0.147	0.00163404
0.16	0.00163331
0.173	0.00163285
0.186	0.00163232
0.199	0.00163122
0.212	0.00163094
0.225	0.00163027
0.238	0.00162922
0.251	0.00162808
0.264	0.00162752
0.277	0.00162671
0.29	0.00162600
0.303	0.00162517
0.316	0.00162400
0.329	0.00162294
0.342	0.00162206
0.355	0.00162081
0.368	0.00161987
0.381	0.00161856
0.394	0.00161718
0.407	0.00161559
0.42	0.00161440
0.433	0.00161305
0.446	0.00161110
0.459	0.00160893
0.472	0.00160707
0.485	0.00160511
0.498	0.00160313
0.511	0.00160064
0.524	0.00159822
0.537	0.00159508
0.55	0.00159210
0.563	0.00158843
0.576	0.00158495
0.589	0.00158072
0.602	0.00157734
0.615	0.00157254
0.628	0.00156769
0.641	0.00156134
0.654	0.00155504
0.667	0.00154810
0.68	0.00154028
0.693	0.00153208
0.706	0.00152340
0.719	0.00151255
0.732	0.00150120
0.745	0.00148920
0.758	0.00147489
0.771	0.00145934
0.784	0.00144217
0.797	0.00142293
0.81	0.00140223
0.823	0.00137863
0.836	0.00135235
0.849	0.00132349
0.862	0.00129144
0.875	0.00125623
0.888	0.00121760
0.901	0.00117555
0.914	0.00113000
0.927	0.00108036
0.94	0.00102680
0.953	0.00099180
0.966	0.00092691
0.979	0.00085857
0.992	0.00078714
1.005	0.00071192
1.018	0.00063376
1.031	0.00055204
1.044	0.00046700
1.057	0.00037862
1.07	0.00028677
1.083	0.00019177
1.096	0.00012894
1.109	0.00003242
1.122	-0.00007707
1.135	-0.00017470
1.148	-0.00029022
1.161	-0.00040779
1.174	-0.00052712
1.187	-0.00064805
1.2	-0.00077124