Folder: YanLab/Data/IV_data/20240619 - Freezing PVSK #1 - JV Data (part 2)

File: FZ_002-1_ITO+SnO2+PVSK+PEAI+Spiro+Carbon (RT)  2024-06-19 10-06-50.txt
Device Id	Operator	Recipe
FZ_002-1_ITO+SnO2+PVSK+PEAI+Spiro+Carbon (RT) 	Unknown	Jacob PVSKT _ 0.08cm2 (nature recipe).IV

Sample Area	Irradiance	Pre sweep delay	Bias Direction	Max Reverse Bias	Max Forward Bias	Num Sweep Points	Dwell Time	Current Limit	PVIV 10A I-AMP	Average	Dark Current	Rshunt V-Lo	Rshunt V-Hi
0.080000	1.0000	0.5000	0	-0.1000	1.2000	101	10	130	0	1	0	-0.6000	-0.1000

Voc V	Isc A	Jsc mA/cm2	Imax A	Vmax V	Pmax mW	Fill Factor	Efficiency	R at Voc	R at Isc	Power W	RShunt ohms	Cell Temp start	Cell Temp end	Exposure	Time	Date
0.953187	0.00119316	14.9145	0.00075324	0.586052	0.441436	38.8144	5.5180	354.635	2244.867	0.00075111	NaN	NaN	NaN	8.484	10:06:50	06/19/2024

Vmeas	Imeas
1.2	-0.00071974
1.187	-0.00068998
1.174	-0.00065482
1.161	-0.00062080
1.148	-0.00058260
1.135	-0.00054534
1.122	-0.00050515
1.109	-0.00046725
1.096	-0.00042244
1.083	-0.00038270
1.07	-0.00034133
1.057	-0.00030478
1.044	-0.00025977
1.031	-0.00022053
1.018	-0.00018436
1.005	-0.00014725
0.992	-0.00011055
0.979	-0.00007203
0.966	-0.00003442
0.953	0.00000325
0.94	0.00004109
0.927	0.00007777
0.914	0.00011246
0.901	0.00014697
0.888	0.00018129
0.875	0.00021454
0.862	0.00024574
0.849	0.00027914
0.836	0.00031038
0.823	0.00033844
0.81	0.00036674
0.797	0.00039502
0.784	0.00042341
0.771	0.00045157
0.758	0.00047805
0.745	0.00050310
0.732	0.00052756
0.719	0.00055140
0.706	0.00057292
0.693	0.00059533
0.68	0.00061685
0.667	0.00063789
0.654	0.00065803
0.641	0.00067795
0.628	0.00069637
0.615	0.00071447
0.602	0.00073240
0.589	0.00074956
0.576	0.00076613
0.563	0.00078219
0.55	0.00079793
0.537	0.00081285
0.524	0.00082794
0.511	0.00084302
0.498	0.00085701
0.485	0.00087050
0.472	0.00088362
0.459	0.00089656
0.446	0.00090817
0.433	0.00091892
0.42	0.00093194
0.407	0.00094308
0.394	0.00095660
0.381	0.00096436
0.368	0.00097441
0.355	0.00098613
0.342	0.00099863
0.329	0.00100496
0.316	0.00101620
0.303	0.00102331
0.29	0.00103554
0.277	0.00104442
0.264	0.00105210
0.251	0.00105923
0.238	0.00106741
0.225	0.00107681
0.212	0.00108384
0.199	0.00109176
0.186	0.00109903
0.173	0.00110652
0.16	0.00111437
0.147	0.00112155
0.134	0.00112884
0.121	0.00113598
0.108	0.00114274
0.09500000	0.00114924
0.08200000	0.00115576
0.06900000	0.00116221
0.05600000	0.00117226
0.04300000	0.00117803
0.03000000	0.00118352
0.01700000	0.00118887
0.00400000	0.00119389
-0.00900000	0.00120171
-0.02200000	0.00120501
-0.03500000	0.00120962
-0.04800000	0.00121425
-0.06100000	0.00121887
-0.07400000	0.00122386
-0.08700000	0.00122854
-0.1	0.00123291

File: FZ_002-2_ITO+SnO2+PVSK+PEAI+Spiro+Carbon (RT)  2024-06-19 10-09-15.txt
Device Id	Operator	Recipe
FZ_002-2_ITO+SnO2+PVSK+PEAI+Spiro+Carbon (RT) 	Unknown	Jacob PVSKT _ 0.08cm2 (nature recipe).IV

Sample Area	Irradiance	Pre sweep delay	Bias Direction	Max Reverse Bias	Max Forward Bias	Num Sweep Points	Dwell Time	Current Limit	PVIV 10A I-AMP	Average	Dark Current	Rshunt V-Lo	Rshunt V-Hi
0.080000	1.0000	0.5000	0	-0.1000	1.2000	101	10	130	0	1	0	-0.6000	-0.1000

Voc V	Isc A	Jsc mA/cm2	Imax A	Vmax V	Pmax mW	Fill Factor	Efficiency	R at Voc	R at Isc	Power W	RShunt ohms	Cell Temp start	Cell Temp end	Exposure	Time	Date
1.05484	0.00158391	19.7988	0.00118307	0.706668	0.836039	50.0393	10.4505	177.084	4864.430	0.00128547	NaN	NaN	NaN	8.484	10:09:15	06/19/2024

Vmeas	Imeas
1.2	-0.00086817
1.187	-0.00080118
1.174	-0.00072753
1.161	-0.00064932
1.148	-0.00056848
1.135	-0.00048611
1.122	-0.00040298
1.109	-0.00032040
1.096	-0.00023864
1.083	-0.00015805
1.07	-0.00008028
1.057	-0.00000473
1.044	0.00006738
1.031	0.00013600
1.018	0.00020774
1.005	0.00027676
0.992	0.00034332
0.979	0.00040676
0.966	0.00046794
0.953	0.00052607
0.94	0.00058134
0.927	0.00063406
0.914	0.00068403
0.901	0.00073139
0.888	0.00077614
0.875	0.00081854
0.862	0.00085856
0.849	0.00089641
0.836	0.00093198
0.823	0.00096605
0.81	0.00099796
0.797	0.00102852
0.784	0.00105018
0.771	0.00105790
0.758	0.00108733
0.745	0.00111488
0.732	0.00114035
0.719	0.00116398
0.706	0.00118629
0.693	0.00120698
0.68	0.00122678
0.667	0.00124551
0.654	0.00126296
0.641	0.00127973
0.628	0.00129521
0.615	0.00131015
0.602	0.00132431
0.589	0.00133741
0.576	0.00135025
0.563	0.00136220
0.55	0.00137309
0.537	0.00138441
0.524	0.00139523
0.511	0.00140512
0.498	0.00141448
0.485	0.00142386
0.472	0.00143231
0.459	0.00144049
0.446	0.00144756
0.433	0.00145532
0.42	0.00146281
0.407	0.00146950
0.394	0.00147603
0.381	0.00148193
0.368	0.00148790
0.355	0.00149369
0.342	0.00149881
0.329	0.00150378
0.316	0.00150953
0.303	0.00151384
0.29	0.00151852
0.277	0.00152311
0.264	0.00152698
0.251	0.00153075
0.238	0.00153530
0.225	0.00153932
0.212	0.00154261
0.199	0.00154559
0.186	0.00154856
0.173	0.00155218
0.16	0.00155506
0.147	0.00155833
0.134	0.00156139
0.121	0.00156353
0.108	0.00156609
0.09500000	0.00156883
0.08200000	0.00157117
0.06900000	0.00157359
0.05600000	0.00157552
0.04300000	0.00157769
0.03000000	0.00157941
0.01700000	0.00158214
0.00400000	0.00158411
-0.00900000	0.00158590
-0.02200000	0.00158728
-0.03500000	0.00158889
-0.04800000	0.00159126
-0.06100000	0.00159291
-0.07400000	0.00159434
-0.08700000	0.00159569
-0.1	0.00159680

File: FZ_002-3_ITO+SnO2+PVSK+PEAI+Spiro+Carbon (RT)  2024-06-19 10-11-16.txt
Device Id	Operator	Recipe
FZ_002-3_ITO+SnO2+PVSK+PEAI+Spiro+Carbon (RT) 	Unknown	Jacob PVSKT _ 0.08cm2 (nature recipe).IV

Sample Area	Irradiance	Pre sweep delay	Bias Direction	Max Reverse Bias	Max Forward Bias	Num Sweep Points	Dwell Time	Current Limit	PVIV 10A I-AMP	Average	Dark Current	Rshunt V-Lo	Rshunt V-Hi
0.080000	1.0000	0.5000	0	-0.1000	1.2000	101	10	130	0	1	0	-0.6000	-0.1000

Voc V	Isc A	Jsc mA/cm2	Imax A	Vmax V	Pmax mW	Fill Factor	Efficiency	R at Voc	R at Isc	Power W	RShunt ohms	Cell Temp start	Cell Temp end	Exposure	Time	Date
1.05182	0.00160888	20.111	0.00118798	0.707796	0.840848	49.6882	10.5106	176.512	4161.885	0.00129213	NaN	NaN	NaN	8.297	10:11:16	06/19/2024

Vmeas	Imeas
1.2	-0.00088896
1.187	-0.00081485
1.174	-0.00073787
1.161	-0.00065887
1.148	-0.00057858
1.135	-0.00049765
1.122	-0.00041623
1.109	-0.00033558
1.096	-0.00025527
1.083	-0.00017634
1.07	-0.00010024
1.057	-0.00002314
1.044	0.00005211
1.031	0.00011949
1.018	0.00019154
1.005	0.00026074
0.992	0.00032730
0.979	0.00039137
0.966	0.00045297
0.953	0.00051169
0.94	0.00056801
0.927	0.00062139
0.914	0.00067234
0.901	0.00072059
0.888	0.00076637
0.875	0.00080960
0.862	0.00085059
0.849	0.00088942
0.836	0.00092592
0.823	0.00096074
0.81	0.00099360
0.797	0.00102472
0.784	0.00105018
0.771	0.00106711
0.758	0.00109537
0.745	0.00112182
0.732	0.00114675
0.719	0.00117018
0.706	0.00119208
0.693	0.00121297
0.68	0.00123262
0.667	0.00125101
0.654	0.00126881
0.641	0.00128547
0.628	0.00130127
0.615	0.00131595
0.602	0.00133040
0.589	0.00134365
0.576	0.00135672
0.563	0.00136879
0.55	0.00138056
0.537	0.00139170
0.524	0.00140196
0.511	0.00141213
0.498	0.00142218
0.485	0.00143165
0.472	0.00144029
0.459	0.00144885
0.446	0.00145694
0.433	0.00146461
0.42	0.00147238
0.407	0.00147958
0.394	0.00148699
0.381	0.00149327
0.368	0.00149937
0.355	0.00150561
0.342	0.00151126
0.329	0.00151692
0.316	0.00152242
0.303	0.00152721
0.29	0.00153257
0.277	0.00153738
0.264	0.00154213
0.251	0.00154637
0.238	0.00155098
0.225	0.00155478
0.212	0.00155921
0.199	0.00156282
0.186	0.00156698
0.173	0.00157012
0.16	0.00157431
0.147	0.00157730
0.134	0.00158062
0.121	0.00158399
0.108	0.00158738
0.09500000	0.00159059
0.08200000	0.00159334
0.06900000	0.00159553
0.05600000	0.00159857
0.04300000	0.00160140
0.03000000	0.00160317
0.01700000	0.00160589
0.00400000	0.00160913
-0.00900000	0.00161180
-0.02200000	0.00161374
-0.03500000	0.00161607
-0.04800000	0.00161790
-0.06100000	0.00162003
-0.07400000	0.00162222
-0.08700000	0.00162432
-0.1	0.00162575

File: FZ_002-4_ITO+SnO2+PVSK+PEAI+Spiro+Carbon (RT)  2024-06-19 10-12-20.txt
Device Id	Operator	Recipe
FZ_002-4_ITO+SnO2+PVSK+PEAI+Spiro+Carbon (RT) 	Unknown	Jacob PVSKT _ 0.08cm2 (nature recipe).IV

Sample Area	Irradiance	Pre sweep delay	Bias Direction	Max Reverse Bias	Max Forward Bias	Num Sweep Points	Dwell Time	Current Limit	PVIV 10A I-AMP	Average	Dark Current	Rshunt V-Lo	Rshunt V-Hi
0.080000	1.0000	0.5000	0	-0.1000	1.2000	101	10	130	0	1	0	-0.6000	-0.1000

Voc V	Isc A	Jsc mA/cm2	Imax A	Vmax V	Pmax mW	Fill Factor	Efficiency	R at Voc	R at Isc	Power W	RShunt ohms	Cell Temp start	Cell Temp end	Exposure	Time	Date
0.746567	0.00155799	19.4749	0.00097955	0.460553	0.451137	38.7860	5.6392	315.421	1473.207	0.00075668	NaN	NaN	NaN	8.562	10:12:20	06/19/2024

Vmeas	Imeas
1.2	-0.00175404
1.187	-0.00171262
1.174	-0.00168310
1.161	-0.00162099
1.148	-0.00155323
1.135	-0.00147891
1.122	-0.00140807
1.109	-0.00132854
1.096	-0.00125772
1.083	-0.00118468
1.07	-0.00110122
1.057	-0.00102550
1.044	-0.00094204
1.031	-0.00088524
1.018	-0.00082160
1.005	-0.00076194
0.992	-0.00070814
0.979	-0.00065079
0.966	-0.00059558
0.953	-0.00055211
0.94	-0.00051300
0.927	-0.00047621
0.914	-0.00044545
0.901	-0.00040518
0.888	-0.00036887
0.875	-0.00033648
0.862	-0.00030604
0.849	-0.00027571
0.836	-0.00024923
0.823	-0.00021634
0.81	-0.00018721
0.797	-0.00014944
0.784	-0.00011736
0.771	-0.00008246
0.758	-0.00004344
0.745	-0.00000651
0.732	0.00003162
0.719	0.00008295
0.706	0.00012204
0.693	0.00017472
0.68	0.00022974
0.667	0.00028450
0.654	0.00033724
0.641	0.00038860
0.628	0.00043924
0.615	0.00048861
0.602	0.00053595
0.589	0.00058277
0.576	0.00063092
0.563	0.00067685
0.55	0.00072040
0.537	0.00076254
0.524	0.00080340
0.511	0.00084129
0.498	0.00087853
0.485	0.00091263
0.472	0.00095078
0.459	0.00098501
0.446	0.00101724
0.433	0.00104678
0.42	0.00101633
0.407	0.00105335
0.394	0.00108702
0.381	0.00111742
0.368	0.00114576
0.355	0.00117204
0.342	0.00119695
0.329	0.00121987
0.316	0.00124157
0.303	0.00126256
0.29	0.00128209
0.277	0.00130145
0.264	0.00131901
0.251	0.00133522
0.238	0.00135197
0.225	0.00136722
0.212	0.00138291
0.199	0.00139737
0.186	0.00141045
0.173	0.00142306
0.16	0.00143498
0.147	0.00144710
0.134	0.00145910
0.121	0.00147029
0.108	0.00148160
0.09500000	0.00149171
0.08200000	0.00150205
0.06900000	0.00151230
0.05600000	0.00152198
0.04300000	0.00153119
0.03000000	0.00154042
0.01700000	0.00154967
0.00400000	0.00155791
-0.00900000	0.00156701
-0.02200000	0.00157505
-0.03500000	0.00158284
-0.04800000	0.00159114
-0.06100000	0.00159854
-0.07400000	0.00160646
-0.08700000	0.00161382
-0.1	0.00162155

File: FZ_002-5_ITO+SnO2+PVSK+PEAI+Spiro+Carbon (RT)  2024-06-19 10-13-04.txt
Device Id	Operator	Recipe
FZ_002-5_ITO+SnO2+PVSK+PEAI+Spiro+Carbon (RT) 	Unknown	Jacob PVSKT _ 0.08cm2 (nature recipe).IV

Sample Area	Irradiance	Pre sweep delay	Bias Direction	Max Reverse Bias	Max Forward Bias	Num Sweep Points	Dwell Time	Current Limit	PVIV 10A I-AMP	Average	Dark Current	Rshunt V-Lo	Rshunt V-Hi
0.080000	1.0000	0.5000	0	-0.1000	1.2000	101	10	130	0	1	0	-0.6000	-0.1000

Voc V	Isc A	Jsc mA/cm2	Imax A	Vmax V	Pmax mW	Fill Factor	Efficiency	R at Voc	R at Isc	Power W	RShunt ohms	Cell Temp start	Cell Temp end	Exposure	Time	Date
0.995686	0.00155881	19.4851	0.00100146	0.654783	0.655742	42.2492	8.1968	275.824	2829.774	0.00107810	NaN	NaN	NaN	8.359	10:13:04	06/19/2024

Vmeas	Imeas
1.2	-0.00102131
1.187	-0.00094783
1.174	-0.00087190
1.161	-0.00079411
1.148	-0.00071609
1.135	-0.00063888
1.122	-0.00056285
1.109	-0.00048955
1.096	-0.00041908
1.083	-0.00035192
1.07	-0.00028830
1.057	-0.00022829
1.044	-0.00017181
1.031	-0.00011864
1.018	-0.00006743
1.005	-0.00001908
0.992	0.00002719
0.979	0.00007164
0.966	0.00010845
0.953	0.00015363
0.94	0.00019732
0.927	0.00024004
0.914	0.00028223
0.901	0.00032394
0.888	0.00036531
0.875	0.00040645
0.862	0.00044732
0.849	0.00048782
0.836	0.00052784
0.823	0.00056773
0.81	0.00060686
0.797	0.00064554
0.784	0.00068358
0.771	0.00072069
0.758	0.00075707
0.745	0.00079242
0.732	0.00082607
0.719	0.00085927
0.706	0.00089131
0.693	0.00092222
0.68	0.00095204
0.667	0.00098041
0.654	0.00100753
0.641	0.00103362
0.628	0.00105018
0.615	0.00103476
0.602	0.00106656
0.589	0.00109378
0.576	0.00111891
0.563	0.00114220
0.55	0.00116418
0.537	0.00118491
0.524	0.00120463
0.511	0.00122320
0.498	0.00124078
0.485	0.00125734
0.472	0.00127306
0.459	0.00128841
0.446	0.00130258
0.433	0.00131646
0.42	0.00132883
0.407	0.00134173
0.394	0.00135365
0.381	0.00136525
0.368	0.00137640
0.355	0.00138661
0.342	0.00139701
0.329	0.00140636
0.316	0.00141557
0.303	0.00142468
0.29	0.00143311
0.277	0.00144154
0.264	0.00144954
0.251	0.00145694
0.238	0.00146437
0.225	0.00147072
0.212	0.00147755
0.199	0.00148437
0.186	0.00149058
0.173	0.00149696
0.16	0.00150264
0.147	0.00150842
0.134	0.00151377
0.121	0.00151912
0.108	0.00152448
0.09500000	0.00152923
0.08200000	0.00153410
0.06900000	0.00153875
0.05600000	0.00154292
0.04300000	0.00154734
0.03000000	0.00155093
0.01700000	0.00155542
0.00400000	0.00155958
-0.00900000	0.00156532
-0.02200000	0.00156830
-0.03500000	0.00157108
-0.04800000	0.00157463
-0.06100000	0.00157783
-0.07400000	0.00158050
-0.08700000	0.00158352
-0.1	0.00158665

File: FZ_002-6_ITO+SnO2+PVSK+PEAI+Spiro+Carbon (RT)  2024-06-19 10-14-34.txt
Device Id	Operator	Recipe
FZ_002-6_ITO+SnO2+PVSK+PEAI+Spiro+Carbon (RT) 	Unknown	Jacob PVSKT _ 0.08cm2 (nature recipe).IV

Sample Area	Irradiance	Pre sweep delay	Bias Direction	Max Reverse Bias	Max Forward Bias	Num Sweep Points	Dwell Time	Current Limit	PVIV 10A I-AMP	Average	Dark Current	Rshunt V-Lo	Rshunt V-Hi
0.080000	1.0000	0.5000	0	-0.1000	1.2000	101	10	130	0	1	0	-0.6000	-0.1000

Voc V	Isc A	Jsc mA/cm2	Imax A	Vmax V	Pmax mW	Fill Factor	Efficiency	R at Voc	R at Isc	Power W	RShunt ohms	Cell Temp start	Cell Temp end	Exposure	Time	Date
0.991496	0.00170958	21.3697	0.00133669	0.616419	0.823962	48.6102	10.2995	207.618	5560.980	0.00127402	NaN	NaN	NaN	8.562	10:14:34	06/19/2024

Vmeas	Imeas
1.2	-0.00130667
1.187	-0.00122923
1.174	-0.00114179
1.161	-0.00104914
1.148	-0.00094046
1.135	-0.00084482
1.122	-0.00074976
1.109	-0.00065719
1.096	-0.00056796
1.083	-0.00048252
1.07	-0.00040147
1.057	-0.00032502
1.044	-0.00025323
1.031	-0.00018597
1.018	-0.00012263
1.005	-0.00005696
0.992	0.00000441
0.979	0.00006842
0.966	0.00012844
0.953	0.00018617
0.94	0.00024311
0.927	0.00029954
0.914	0.00035569
0.901	0.00041196
0.888	0.00046777
0.875	0.00052333
0.862	0.00057838
0.849	0.00063271
0.836	0.00068528
0.823	0.00073839
0.81	0.00078995
0.797	0.00083982
0.784	0.00088826
0.771	0.00093510
0.758	0.00098068
0.745	0.00102401
0.732	0.00105018
0.719	0.00105459
0.706	0.00110160
0.693	0.00114315
0.68	0.00118199
0.667	0.00121795
0.654	0.00125110
0.641	0.00128207
0.628	0.00131101
0.615	0.00133787
0.602	0.00136324
0.589	0.00138658
0.576	0.00140864
0.563	0.00142894
0.55	0.00144837
0.537	0.00146610
0.524	0.00148287
0.511	0.00149829
0.498	0.00151235
0.485	0.00152596
0.472	0.00153848
0.459	0.00155027
0.446	0.00156054
0.433	0.00157107
0.42	0.00158053
0.407	0.00158938
0.394	0.00159768
0.381	0.00160582
0.368	0.00161253
0.355	0.00161988
0.342	0.00162541
0.329	0.00163130
0.316	0.00163689
0.303	0.00164263
0.29	0.00164761
0.277	0.00165247
0.264	0.00165670
0.251	0.00166077
0.238	0.00166476
0.225	0.00166888
0.212	0.00167234
0.199	0.00167546
0.186	0.00167836
0.173	0.00168198
0.16	0.00168485
0.147	0.00168735
0.134	0.00168980
0.121	0.00169245
0.108	0.00169408
0.09500000	0.00169703
0.08200000	0.00169889
0.06900000	0.00170084
0.05600000	0.00170298
0.04300000	0.00170466
0.03000000	0.00170618
0.01700000	0.00170794
0.00400000	0.00170930
-0.00900000	0.00171264
-0.02200000	0.00171411
-0.03500000	0.00171468
-0.04800000	0.00171575
-0.06100000	0.00171675
-0.07400000	0.00171827
-0.08700000	0.00171915
-0.1	0.00172030

File: FZ_003-1_ITO+SnO2+PVSK+PEAI+Spiro+Carbon (RT)  2024-06-19 10-18-25.txt
Device Id	Operator	Recipe
FZ_003-1_ITO+SnO2+PVSK+PEAI+Spiro+Carbon (RT) 	Unknown	Jacob PVSKT _ 0.08cm2 (nature recipe).IV

Sample Area	Irradiance	Pre sweep delay	Bias Direction	Max Reverse Bias	Max Forward Bias	Num Sweep Points	Dwell Time	Current Limit	PVIV 10A I-AMP	Average	Dark Current	Rshunt V-Lo	Rshunt V-Hi
0.080000	1.0000	0.5000	0	-0.1000	1.2000	101	10	130	0	1	0	-0.6000	-0.1000

Voc V	Isc A	Jsc mA/cm2	Imax A	Vmax V	Pmax mW	Fill Factor	Efficiency	R at Voc	R at Isc	Power W	RShunt ohms	Cell Temp start	Cell Temp end	Exposure	Time	Date
1.06544	0.00149061	18.6327	0.00098860	0.71993	0.711723	44.8142	8.8965	212.864	3047.141	0.00114499	NaN	NaN	NaN	8.297	10:18:25	06/19/2024

Vmeas	Imeas
1.2	-0.00067790
1.187	-0.00062009
1.174	-0.00055482
1.161	-0.00048637
1.148	-0.00041639
1.135	-0.00034620
1.122	-0.00027629
1.109	-0.00020766
1.096	-0.00014049
1.083	-0.00007482
1.07	-0.00001132
1.057	0.00005040
1.044	0.00010673
1.031	0.00016452
1.018	0.00021990
1.005	0.00027296
0.992	0.00032382
0.979	0.00037251
0.966	0.00041915
0.953	0.00046353
0.94	0.00050571
0.927	0.00054597
0.914	0.00058420
0.901	0.00062075
0.888	0.00065546
0.875	0.00068877
0.862	0.00072022
0.849	0.00075030
0.836	0.00077907
0.823	0.00080688
0.81	0.00083328
0.797	0.00085870
0.784	0.00088294
0.771	0.00090637
0.758	0.00092885
0.745	0.00095023
0.732	0.00097104
0.719	0.00099120
0.706	0.00101037
0.693	0.00102906
0.68	0.00104715
0.667	0.00104140
0.654	0.00106094
0.641	0.00107943
0.628	0.00109694
0.615	0.00111341
0.602	0.00112905
0.589	0.00114443
0.576	0.00115876
0.563	0.00117289
0.55	0.00118641
0.537	0.00119967
0.524	0.00121205
0.511	0.00122423
0.498	0.00123638
0.485	0.00124737
0.472	0.00125817
0.459	0.00126887
0.446	0.00127923
0.433	0.00128908
0.42	0.00129817
0.407	0.00130750
0.394	0.00131634
0.381	0.00132520
0.368	0.00133364
0.355	0.00134183
0.342	0.00134998
0.329	0.00135771
0.316	0.00136503
0.303	0.00137236
0.29	0.00137936
0.277	0.00138587
0.264	0.00139268
0.251	0.00139916
0.238	0.00140551
0.225	0.00141127
0.212	0.00141730
0.199	0.00142303
0.186	0.00142837
0.173	0.00143411
0.16	0.00143940
0.147	0.00144414
0.134	0.00144893
0.121	0.00145348
0.108	0.00145864
0.09500000	0.00146306
0.08200000	0.00146747
0.06900000	0.00147177
0.05600000	0.00147575
0.04300000	0.00147965
0.03000000	0.00148368
0.01700000	0.00148733
0.00400000	0.00149105
-0.00900000	0.00149500
-0.02200000	0.00149860
-0.03500000	0.00150123
-0.04800000	0.00150473
-0.06100000	0.00150819
-0.07400000	0.00151145
-0.08700000	0.00151462
-0.1	0.00151738

File: FZ_003-2_ITO+SnO2+PVSK+PEAI+Spiro+Carbon (RT)  2024-06-19 10-19-21.txt
Device Id	Operator	Recipe
FZ_003-2_ITO+SnO2+PVSK+PEAI+Spiro+Carbon (RT) 	Unknown	Jacob PVSKT _ 0.08cm2 (nature recipe).IV

Sample Area	Irradiance	Pre sweep delay	Bias Direction	Max Reverse Bias	Max Forward Bias	Num Sweep Points	Dwell Time	Current Limit	PVIV 10A I-AMP	Average	Dark Current	Rshunt V-Lo	Rshunt V-Hi
0.080000	1.0000	0.5000	0	-0.1000	1.2000	101	10	130	0	1	0	-0.6000	-0.1000

Voc V	Isc A	Jsc mA/cm2	Imax A	Vmax V	Pmax mW	Fill Factor	Efficiency	R at Voc	R at Isc	Power W	RShunt ohms	Cell Temp start	Cell Temp end	Exposure	Time	Date
1.06275	0.00152930	19.1162	0.00100820	0.71473	0.720593	44.3372	9.0074	240.588	3305.492	0.00116681	NaN	NaN	NaN	8.281	10:19:21	06/19/2024

Vmeas	Imeas
1.2	-0.00060797
1.187	-0.00054716
1.174	-0.00048732
1.161	-0.00042832
1.148	-0.00036982
1.135	-0.00031148
1.122	-0.00025317
1.109	-0.00019527
1.096	-0.00013785
1.083	-0.00008067
1.07	-0.00002458
1.057	0.00003073
1.044	0.00008492
1.031	0.00013407
1.018	0.00018675
1.005	0.00023767
0.992	0.00028703
0.979	0.00033494
0.966	0.00038139
0.953	0.00042633
0.94	0.00046962
0.927	0.00051113
0.914	0.00055153
0.901	0.00059035
0.888	0.00062782
0.875	0.00066392
0.862	0.00069873
0.849	0.00073229
0.836	0.00076464
0.823	0.00079570
0.81	0.00082575
0.797	0.00085460
0.784	0.00088238
0.771	0.00090908
0.758	0.00093490
0.745	0.00095968
0.732	0.00098278
0.719	0.00100600
0.706	0.00102822
0.693	0.00104903
0.68	0.00104003
0.667	0.00106404
0.654	0.00108584
0.641	0.00110651
0.628	0.00112600
0.615	0.00114383
0.602	0.00116165
0.589	0.00117856
0.576	0.00119464
0.563	0.00121018
0.55	0.00122509
0.537	0.00123956
0.524	0.00125316
0.511	0.00126607
0.498	0.00127875
0.485	0.00129094
0.472	0.00130257
0.459	0.00131397
0.446	0.00132457
0.433	0.00133495
0.42	0.00134487
0.407	0.00135458
0.394	0.00136422
0.381	0.00137285
0.368	0.00138133
0.355	0.00138944
0.342	0.00139761
0.329	0.00140467
0.316	0.00141218
0.303	0.00141909
0.29	0.00142598
0.277	0.00143266
0.264	0.00143918
0.251	0.00144532
0.238	0.00145086
0.225	0.00145667
0.212	0.00146253
0.199	0.00146793
0.186	0.00147288
0.173	0.00147803
0.16	0.00148306
0.147	0.00148772
0.134	0.00149168
0.121	0.00149635
0.108	0.00150043
0.09500000	0.00150435
0.08200000	0.00150847
0.06900000	0.00151241
0.05600000	0.00151610
0.04300000	0.00151971
0.03000000	0.00152301
0.01700000	0.00152646
0.00400000	0.00152987
-0.00900000	0.00153393
-0.02200000	0.00153688
-0.03500000	0.00153929
-0.04800000	0.00154200
-0.06100000	0.00154471
-0.07400000	0.00154743
-0.08700000	0.00154994
-0.1	0.00155276

File: FZ_003-3_ITO+SnO2+PVSK+PEAI+Spiro+Carbon (RT)  2024-06-19 10-20-10.txt
Device Id	Operator	Recipe
FZ_003-3_ITO+SnO2+PVSK+PEAI+Spiro+Carbon (RT) 	Unknown	Jacob PVSKT _ 0.08cm2 (nature recipe).IV

Sample Area	Irradiance	Pre sweep delay	Bias Direction	Max Reverse Bias	Max Forward Bias	Num Sweep Points	Dwell Time	Current Limit	PVIV 10A I-AMP	Average	Dark Current	Rshunt V-Lo	Rshunt V-Hi
0.080000	1.0000	0.5000	0	-0.1000	1.2000	101	10	130	0	1	0	-0.6000	-0.1000

Voc V	Isc A	Jsc mA/cm2	Imax A	Vmax V	Pmax mW	Fill Factor	Efficiency	R at Voc	R at Isc	Power W	RShunt ohms	Cell Temp start	Cell Temp end	Exposure	Time	Date
0.832448	0.00105579	13.1974	0.00061911	0.487823	0.302017	34.3635	3.7752	455.58	1616.759	0.00053795	NaN	NaN	NaN	8.484	10:20:10	06/19/2024

Vmeas	Imeas
1.2	-0.00085003
1.187	-0.00078579
1.174	-0.00074866
1.161	-0.00072171
1.148	-0.00068731
1.135	-0.00065509
1.122	-0.00059904
1.109	-0.00059575
1.096	-0.00055955
1.083	-0.00051767
1.07	-0.00048352
1.057	-0.00043206
1.044	-0.00040715
1.031	-0.00037694
1.018	-0.00035245
1.005	-0.00032534
0.992	-0.00030383
0.979	-0.00027471
0.966	-0.00025616
0.953	-0.00024339
0.94	-0.00022443
0.927	-0.00020147
0.914	-0.00017822
0.901	-0.00015385
0.888	-0.00013025
0.875	-0.00010100
0.862	-0.00005555
0.849	-0.00002706
0.836	-0.00000345
0.823	0.00002435
0.81	0.00005438
0.797	0.00008346
0.784	0.00010522
0.771	0.00011868
0.758	0.00016192
0.745	0.00018640
0.732	0.00021359
0.719	0.00022715
0.706	0.00025235
0.693	0.00029308
0.68	0.00031923
0.667	0.00034270
0.654	0.00036743
0.641	0.00038916
0.628	0.00041187
0.615	0.00043341
0.602	0.00045488
0.589	0.00047506
0.576	0.00049613
0.563	0.00051454
0.55	0.00053443
0.537	0.00055314
0.524	0.00057154
0.511	0.00058909
0.498	0.00060609
0.485	0.00062271
0.472	0.00063925
0.459	0.00065396
0.446	0.00066995
0.433	0.00068541
0.42	0.00070073
0.407	0.00071514
0.394	0.00073021
0.381	0.00074415
0.368	0.00075803
0.355	0.00077181
0.342	0.00078548
0.329	0.00079825
0.316	0.00081058
0.303	0.00082294
0.29	0.00083449
0.277	0.00084673
0.264	0.00085830
0.251	0.00086991
0.238	0.00088104
0.225	0.00089294
0.212	0.00090384
0.199	0.00091470
0.186	0.00092513
0.173	0.00093577
0.16	0.00094569
0.147	0.00095633
0.134	0.00096573
0.121	0.00097566
0.108	0.00098548
0.09500000	0.00099482
0.08200000	0.00100417
0.06900000	0.00101334
0.05600000	0.00102211
0.04300000	0.00103094
0.03000000	0.00103966
0.01700000	0.00104838
0.00400000	0.00105100
-0.00900000	0.00105979
-0.02200000	0.00106823
-0.03500000	0.00107678
-0.04800000	0.00108524
-0.06100000	0.00109363
-0.07400000	0.00110159
-0.08700000	0.00110985
-0.1	0.00111786

File: FZ_003-4_ITO+SnO2+PVSK+PEAI+Spiro+Carbon (RT)  2024-06-19 10-20-49.txt
Device Id	Operator	Recipe
FZ_003-4_ITO+SnO2+PVSK+PEAI+Spiro+Carbon (RT) 	Unknown	Jacob PVSKT _ 0.08cm2 (nature recipe).IV

Sample Area	Irradiance	Pre sweep delay	Bias Direction	Max Reverse Bias	Max Forward Bias	Num Sweep Points	Dwell Time	Current Limit	PVIV 10A I-AMP	Average	Dark Current	Rshunt V-Lo	Rshunt V-Hi
0.080000	1.0000	0.5000	0	-0.1000	1.2000	101	10	130	0	1	0	-0.6000	-0.1000

Voc V	Isc A	Jsc mA/cm2	Imax A	Vmax V	Pmax mW	Fill Factor	Efficiency	R at Voc	R at Isc	Power W	RShunt ohms	Cell Temp start	Cell Temp end	Exposure	Time	Date
1.08256	0.00168238	21.0298	0.00133853	0.739605	0.989987	54.3568	12.3748	150.15	9226.660	0.00146079	NaN	NaN	NaN	8.500	10:20:49	06/19/2024

Vmeas	Imeas
1.2	-0.00087294
1.187	-0.00076721
1.174	-0.00066441
1.161	-0.00056359
1.148	-0.00046432
1.135	-0.00036634
1.122	-0.00026997
1.109	-0.00017599
1.096	-0.00008349
1.083	0.00000554
1.07	0.00009212
1.057	0.00017445
1.044	0.00025720
1.031	0.00033639
1.018	0.00041245
1.005	0.00048506
0.992	0.00055457
0.979	0.00062067
0.966	0.00068385
0.953	0.00074364
0.94	0.00080053
0.927	0.00085423
0.914	0.00090472
0.901	0.00095261
0.888	0.00099758
0.875	0.00104016
0.862	0.00102545
0.849	0.00107080
0.836	0.00111212
0.823	0.00115064
0.81	0.00118616
0.797	0.00121842
0.784	0.00124929
0.771	0.00127738
0.758	0.00130382
0.745	0.00132819
0.732	0.00135081
0.719	0.00137169
0.706	0.00139178
0.693	0.00140995
0.68	0.00142719
0.667	0.00144339
0.654	0.00145873
0.641	0.00147214
0.628	0.00148536
0.615	0.00149718
0.602	0.00150872
0.589	0.00152004
0.576	0.00153025
0.563	0.00153907
0.55	0.00154822
0.537	0.00155678
0.524	0.00156473
0.511	0.00157147
0.498	0.00157867
0.485	0.00158511
0.472	0.00159037
0.459	0.00159645
0.446	0.00160145
0.433	0.00160689
0.42	0.00161202
0.407	0.00161628
0.394	0.00162043
0.381	0.00162469
0.368	0.00162769
0.355	0.00163217
0.342	0.00163497
0.329	0.00163826
0.316	0.00164038
0.303	0.00164431
0.29	0.00164737
0.277	0.00164932
0.264	0.00165268
0.251	0.00165487
0.238	0.00165621
0.225	0.00165979
0.212	0.00166080
0.199	0.00166194
0.186	0.00166504
0.173	0.00166704
0.16	0.00166870
0.147	0.00166959
0.134	0.00167153
0.121	0.00167224
0.108	0.00167325
0.09500000	0.00167423
0.08200000	0.00167609
0.06900000	0.00167648
0.05600000	0.00167807
0.04300000	0.00167959
0.03000000	0.00168077
0.01700000	0.00168119
0.00400000	0.00168186
-0.00900000	0.00168439
-0.02200000	0.00168484
-0.03500000	0.00168513
-0.04800000	0.00168547
-0.06100000	0.00168629
-0.07400000	0.00168673
-0.08700000	0.00168783
-0.1	0.00168833