Folder: YanLab/Data/IV_data/20240619 - Freezing PVSK #1 - JV Data

Note: Data/IV_data/20240619 - Freezing PVSK #1 - JV Data/Results Table - FZ_002-1_ITO+SnO2+PVSK+PEAI+Spiro+Carbon (RT)  2024-06-19 10-06-50.txt
Measurement	Voc V	Isc A	Jsc mA/cm2	Imax A	Vmax V	Pmax mW	Fill Factor	Efficiency	R at Voc	R at Isc	Power W	RShunt ohms	Cell Temp start	Cell Temp end	Exposure	Time	Date
FZ_002-1_ITO+SnO2+PVSK+PEAI+Spiro+Carbon (RT)  2024-06-19 10-06-50	0.95318682	0.00119316	14.91446761	0.00075324	0.58605232	0.44143641	38.8144	5.5180	354.635481	2244.867	0.00075111	NaN	NaN	NaN	8.484	10:06:50	06/19/2024
FZ_002-2_ITO+SnO2+PVSK+PEAI+Spiro+Carbon (RT)  2024-06-19 10-09-15	1.05483867	0.00158391	19.79882671	0.00118307	0.70666789	0.83603897	50.0393	10.4505	177.084014	4864.430	0.00128547	NaN	NaN	NaN	8.484	10:09:15	06/19/2024
FZ_002-3_ITO+SnO2+PVSK+PEAI+Spiro+Carbon (RT)  2024-06-19 10-11-16	1.05182083	0.00160888	20.11095100	0.00118798	0.70779644	0.84084837	49.6882	10.5106	176.512439	4161.885	0.00129213	NaN	NaN	NaN	8.297	10:11:16	06/19/2024
FZ_002-4_ITO+SnO2+PVSK+PEAI+Spiro+Carbon (RT)  2024-06-19 10-12-20	0.74656705	0.00155799	19.47487332	0.00097955	0.46055331	0.45113707	38.7860	5.6392	315.420993	1473.207	0.00075668	NaN	NaN	NaN	8.562	10:12:20	06/19/2024
FZ_002-5_ITO+SnO2+PVSK+PEAI+Spiro+Carbon (RT)  2024-06-19 10-13-04	0.99568593	0.00155881	19.48507487	0.00100146	0.65478327	0.65574157	42.2492	8.1968	275.823986	2829.774	0.00107810	NaN	NaN	NaN	8.359	10:13:04	06/19/2024
FZ_002-6_ITO+SnO2+PVSK+PEAI+Spiro+Carbon (RT)  2024-06-19 10-14-34	0.99149578	0.00170958	21.36971931	0.00133669	0.61641865	0.82396150	48.6102	10.2995	207.617697	5560.980	0.00127402	NaN	NaN	NaN	8.562	10:14:34	06/19/2024

Note: Data/IV_data/20240619 - Freezing PVSK #1 - JV Data/Results Table - FZ_003-1_ITO+SnO2+PVSK+PEAI+Spiro+Carbon (RT)  2024-06-19 10-18-25.txt
Measurement	Voc V	Isc A	Jsc mA/cm2	Imax A	Vmax V	Pmax mW	Fill Factor	Efficiency	R at Voc	R at Isc	Power W	RShunt ohms	Cell Temp start	Cell Temp end	Exposure	Time	Date
FZ_003-1_ITO+SnO2+PVSK+PEAI+Spiro+Carbon (RT)  2024-06-19 10-18-25	1.06544448	0.00149061	18.63265356	0.00098860	0.71992975	0.71172265	44.8142	8.8965	212.863942	3047.141	0.00114499	NaN	NaN	NaN	8.297	10:18:25	06/19/2024
FZ_003-2_ITO+SnO2+PVSK+PEAI+Spiro+Carbon (RT)  2024-06-19 10-19-21	1.06274635	0.00152930	19.11621732	0.00100820	0.71473017	0.72059305	44.3372	9.0074	240.588115	3305.492	0.00116681	NaN	NaN	NaN	8.281	10:19:21	06/19/2024
FZ_003-3_ITO+SnO2+PVSK+PEAI+Spiro+Carbon (RT)  2024-06-19 10-20-10	0.83244769	0.00105579	13.19737863	0.00061911	0.48782259	0.30201709	34.3635	3.7752	455.579808	1616.759	0.00053795	NaN	NaN	NaN	8.484	10:20:10	06/19/2024
FZ_003-4_ITO+SnO2+PVSK+PEAI+Spiro+Carbon (RT)  2024-06-19 10-20-49	1.08255769	0.00168238	21.02977991	0.00133853	0.73960510	0.98998707	54.3568	12.3748	150.149764	9226.660	0.00146079	NaN	NaN	NaN	8.500	10:20:49	06/19/2024
FZ_003-4_ITO+SnO2+PVSK+PEAI+Spiro+Carbon (RT)  2024-06-19 10-21-12	1.08983095	0.00167430	20.92876295	0.00132513	0.71560130	0.94826560	51.9682	11.8533	163.502518	7291.815	0.00143111	NaN	NaN	NaN	8.297	10:21:12	06/19/2024
FZ_003-5_ITO+SnO2+PVSK+PEAI+Spiro+Carbon (RT)  2024-06-19 10-22-18	1.10003452	0.00169172	21.14648163	0.00129326	0.74625292	0.96509912	51.8606	12.0637	152.146284	5291.365	0.00145746	NaN	NaN	NaN	8.281	10:22:18	06/19/2024
FZ_003-6_ITO+SnO2+PVSK+PEAI+Spiro+Carbon (RT)  2024-06-19 10-24-14	1.04537353	0.00169756	21.21946913	0.00131383	0.64962422	0.85349636	48.0956	10.6687	214.429217	5053.326	0.00132811	NaN	NaN	NaN	8.500	10:24:14	06/19/2024

Note: Data/IV_data/20240619 - Freezing PVSK #1 - JV Data/Results Table - FZ_006-1_ITO+SnO2+PVSK+PEAI+Spiro+Carbon (Dry Ice)  2024-06-19 11-05-44.txt
Measurement	Voc V	Isc A	Jsc mA/cm2	Imax A	Vmax V	Pmax mW	Fill Factor	Efficiency	R at Voc	R at Isc	Power W	RShunt ohms	Cell Temp start	Cell Temp end	Exposure	Time	Date
FZ_006-1_ITO+SnO2+PVSK+PEAI+Spiro+Carbon (Dry Ice)  2024-06-19 11-05-44	1.04170648	0.00144302	18.03770944	0.00100454	0.74449021	0.74787196	49.7520	9.3484	157.804577	3835.263	0.00114878	NaN	NaN	NaN	8.562	11:05:44	06/19/2024
FZ_006-2_ITO+SnO2+PVSK+PEAI+Spiro+Carbon (Dry Ice)  2024-06-19 11-07-34	0.10327356	0.00068248	8.53102077	0.00034370	0.05105208	0.01754658	24.8950	0.2193	146.315149	151.809	0.00003507	NaN	NaN	NaN	8.359	11:07:34	06/19/2024
FZ_006-3_ITO+SnO2+PVSK+PEAI+Spiro+Carbon (Dry Ice)  2024-06-19 11-08-20	0.82222556	0.00133886	16.73572856	0.00082116	0.49124071	0.40338875	36.6436	5.0424	316.449457	1529.504	0.00070246	NaN	NaN	NaN	8.562	11:08:20	06/19/2024
FZ_006-4_ITO+SnO2+PVSK+PEAI+Spiro+Carbon (Dry Ice)  2024-06-19 11-09-37	1.02846832	0.00151784	18.97306150	0.00123573	0.73612067	0.90964303	58.2710	11.3705	125.187343	13875.157	0.00129911	NaN	NaN	NaN	8.500	11:09:37	06/19/2024
FZ_006-4_ITO+SnO2+PVSK+PEAI+Spiro+Carbon (Dry Ice)  2024-06-19 11-10-32	1.03386777	0.00151304	18.91306172	0.00122556	0.74341233	0.91109430	58.2434	11.3887	121.757958	11585.601	0.00130126	NaN	NaN	NaN	8.375	11:10:32	06/19/2024
FZ_006-5_ITO+SnO2+PVSK+PEAI+Spiro+Carbon (Dry Ice)  2024-06-19 11-12-04	1.04185357	0.00150703	18.83790975	0.00118242	0.73632098	0.87064391	55.4512	10.8830	128.560090	8235.984	0.00127937	NaN	NaN	NaN	8.484	11:12:04	06/19/2024
FZ_006-6_ITO+SnO2+PVSK+PEAI+Spiro+Carbon (Dry Ice)  2024-06-19 11-13-20	1.05559280	0.00155173	19.39657747	0.00118306	0.72880150	0.86221252	52.6384	10.7777	138.738524	6413.884	0.00130203	NaN	NaN	NaN	8.547	11:13:20	06/19/2024

Note: Data/IV_data/20240619 - Freezing PVSK #1 - JV Data/Results Table - FZ_007-1_ITO+SnO2+PVSK+PEAI+Spiro+Carbon (LN2)  2024-06-19 11-15-33.txt
Measurement	Voc V	Isc A	Jsc mA/cm2	Imax A	Vmax V	Pmax mW	Fill Factor	Efficiency	R at Voc	R at Isc	Power W	RShunt ohms	Cell Temp start	Cell Temp end	Exposure	Time	Date
FZ_007-1_ITO+SnO2+PVSK+PEAI+Spiro+Carbon (LN2)  2024-06-19 11-15-33	0.48734455	0.00068478	8.55973004	0.00035220	0.25123150	0.08848352	26.5141	1.1060	665.871982	778.603	0.00017306	NaN	NaN	NaN	8.422	11:15:33	06/19/2024
FZ_007-2_ITO+SnO2+PVSK+PEAI+Spiro+Carbon (LN2)  2024-06-19 11-16-17	0.33466384	0.00079812	9.97647381	0.00040340	0.16879806	0.06809335	25.4935	0.8512	395.554699	430.694	0.00013511	NaN	NaN	NaN	8.219	11:16:17	06/19/2024
FZ_007-3_ITO+SnO2+PVSK+PEAI+Spiro+Carbon (LN2)  2024-06-19 11-16-45	0.60611943	0.00079723	9.96540005	0.00042607	0.33042491	0.14078287	29.1345	1.7598	519.539029	984.760	0.00026713	NaN	NaN	NaN	8.219	11:16:45	06/19/2024
FZ_007-4_ITO+SnO2+PVSK+PEAI+Spiro+Carbon (LN2)  2024-06-19 11-18-20	1.00922583	0.00107104	13.38799658	0.00089564	0.77529302	0.69438046	64.2397	8.6798	128.314813	16356.067	0.00093406	NaN	NaN	NaN	8.359	11:18:20	06/19/2024
FZ_007-4_ITO+SnO2+PVSK+PEAI+Spiro+Carbon (LN2)  2024-06-19 11-18-31	1.01038599	0.00106989	13.37360864	0.00089310	0.77443643	0.69164839	63.9822	8.6456	130.638397	15673.321	0.00093258	NaN	NaN	NaN	8.359	11:18:31	06/19/2024

Note: Data/IV_data/20240619 - Freezing PVSK #1 - JV Data/Results Table - FZ_008-1_ITO+SnO2+PVSK+PEAI+Spiro+Carbon (LN2)  2024-06-19 11-20-30.txt
Measurement	Voc V	Isc A	Jsc mA/cm2	Imax A	Vmax V	Pmax mW	Fill Factor	Efficiency	R at Voc	R at Isc	Power W	RShunt ohms	Cell Temp start	Cell Temp end	Exposure	Time	Date
FZ_008-1_ITO+SnO2+PVSK+PEAI+Spiro+Carbon (LN2)  2024-06-19 11-20-30	0.37346050	0.00086215	10.77693096	0.00044294	0.18999260	0.08415547	26.1368	1.0519	386.805976	469.854	0.00016561	NaN	NaN	NaN	8.359	11:20:30	06/19/2024
FZ_008-2_ITO+SnO2+PVSK+PEAI+Spiro+Carbon (LN2)  2024-06-19 11-22-46	1.00894278	0.00097377	12.17214885	0.00079568	0.77293795	0.61501181	62.5979	7.6876	143.059864	15888.332	0.00083940	NaN	NaN	NaN	8.219	11:22:46	06/19/2024
FZ_008-2_ITO+SnO2+PVSK+PEAI+Spiro+Carbon (LN2)  2024-06-19 11-23-19	1.02069506	0.00096554	12.06928887	0.00078691	0.78194613	0.61531938	62.4357	7.6915	150.487533	15061.197	0.00084090	NaN	NaN	NaN	8.203	11:23:19	06/19/2024
FZ_008-3_ITO+SnO2+PVSK+PEAI+Spiro+Carbon (LN2)  2024-06-19 11-24-59	1.01378038	0.00099570	12.44625520	0.00077159	0.73664079	0.56838245	56.3077	7.1048	194.582070	9249.197	0.00082042	NaN	NaN	NaN	8.437	11:24:59	06/19/2024
FZ_008-4_ITO+SnO2+PVSK+PEAI+Spiro+Carbon (LN2)  2024-06-19 11-26-25	1.03421137	0.00097221	12.15257551	0.00076774	0.78506437	0.60272231	59.9445	7.5340	157.833574	11913.097	0.00084264	NaN	NaN	NaN	8.219	11:26:25	06/19/2024

Note: README.md
# YanLab
Projects for the Feng Yan Lab

File: FZ_001-1_ITO+SnO2+PVSK+PEAI+Spiro+Carbon (RT)  2024-06-19 10-02-25.txt
Device Id	Operator	Recipe
FZ_001-1_ITO+SnO2+PVSK+PEAI+Spiro+Carbon (RT) 	Unknown	Jacob PVSKT _ 0.08cm2 (nature recipe).IV

Sample Area	Irradiance	Pre sweep delay	Bias Direction	Max Reverse Bias	Max Forward Bias	Num Sweep Points	Dwell Time	Current Limit	PVIV 10A I-AMP	Average	Dark Current	Rshunt V-Lo	Rshunt V-Hi
0.080000	1.0000	0.5000	0	-0.1000	1.2000	101	10	130	0	1	0	-0.6000	-0.1000

Voc V	Isc A	Jsc mA/cm2	Imax A	Vmax V	Pmax mW	Fill Factor	Efficiency	R at Voc	R at Isc	Power W	RShunt ohms	Cell Temp start	Cell Temp end	Exposure	Time	Date
0.278531	0.00081626	10.2033	0.00041485	0.143821	0.05966473	26.2431	0.7458	310.113	387.383	0.00011736	NaN	NaN	NaN	8.609	10:02:25	06/19/2024

Vmeas	Imeas
1.2	-0.00485693
1.187	-0.00468392
1.174	-0.00458021
1.161	-0.00455008
1.148	-0.00433351
1.135	-0.00419458
1.122	-0.00407208
1.109	-0.00393274
1.096	-0.00378537
1.083	-0.00368077
1.07	-0.00361466
1.057	-0.00350286
1.044	-0.00340491
1.031	-0.00329241
1.018	-0.00321410
1.005	-0.00314520
0.992	-0.00306108
0.979	-0.00297391
0.966	-0.00289738
0.953	-0.00281546
0.94	-0.00273375
0.927	-0.00266052
0.914	-0.00258714
0.901	-0.00250649
0.888	-0.00243824
0.875	-0.00236805
0.862	-0.00230258
0.849	-0.00223875
0.836	-0.00217857
0.823	-0.00211108
0.81	-0.00205439
0.797	-0.00199169
0.784	-0.00192612
0.771	-0.00186154
0.758	-0.00180538
0.745	-0.00175151
0.732	-0.00168973
0.719	-0.00163532
0.706	-0.00157947
0.693	-0.00152287
0.68	-0.00146638
0.667	-0.00141026
0.654	-0.00135594
0.641	-0.00130246
0.628	-0.00124636
0.615	-0.00119280
0.602	-0.00113976
0.589	-0.00108825
0.576	-0.00103952
0.563	-0.00099065
0.55	-0.00093854
0.537	-0.00088808
0.524	-0.00083801
0.511	-0.00078965
0.498	-0.00074175
0.485	-0.00069462
0.472	-0.00064769
0.459	-0.00059984
0.446	-0.00055324
0.433	-0.00050818
0.42	-0.00046464
0.407	-0.00041970
0.394	-0.00037450
0.381	-0.00033150
0.368	-0.00028720
0.355	-0.00024325
0.342	-0.00020197
0.329	-0.00016010
0.316	-0.00011615
0.303	-0.00007972
0.29	-0.00003676
0.277	0.00000594
0.264	0.00004751
0.251	0.00008771
0.238	0.00012457
0.225	0.00016555
0.212	0.00020611
0.199	0.00024662
0.186	0.00028981
0.173	0.00032943
0.16	0.00036802
0.147	0.00040569
0.134	0.00044326
0.121	0.00048106
0.108	0.00051909
0.09500000	0.00055702
0.08200000	0.00059424
0.06900000	0.00063058
0.05600000	0.00066562
0.04300000	0.00070127
0.03000000	0.00073609
0.01700000	0.00077209
0.00400000	0.00080651
-0.00900000	0.00083921
-0.02200000	0.00087091
-0.03500000	0.00090269
-0.04800000	0.00093375
-0.06100000	0.00096527
-0.07400000	0.00099617
-0.08700000	0.00102703
-0.1	0.00105034

File: FZ_001-2_ITO+SnO2+PVSK+PEAI+Spiro+Carbon (RT)  2024-06-19 10-03-28.txt
Device Id	Operator	Recipe
FZ_001-2_ITO+SnO2+PVSK+PEAI+Spiro+Carbon (RT) 	Unknown	Jacob PVSKT _ 0.08cm2 (nature recipe).IV

Sample Area	Irradiance	Pre sweep delay	Bias Direction	Max Reverse Bias	Max Forward Bias	Num Sweep Points	Dwell Time	Current Limit	PVIV 10A I-AMP	Average	Dark Current	Rshunt V-Lo	Rshunt V-Hi
0.080000	1.0000	0.5000	0	-0.1000	1.2000	101	10	130	0	1	0	-0.6000	-0.1000

Voc V	Isc A	Jsc mA/cm2	Imax A	Vmax V	Pmax mW	Fill Factor	Efficiency	R at Voc	R at Isc	Power W	RShunt ohms	Cell Temp start	Cell Temp end	Exposure	Time	Date
0.202402	0.00056698	7.0873	0.00028832	0.10142	0.02924113	25.4805	0.3655	337.191	369.914	0.00005811	NaN	NaN	NaN	8.234	10:03:28	06/19/2024

Vmeas	Imeas
1.2	-0.00430290
1.187	-0.00420490
1.174	-0.00408880
1.161	-0.00400193
1.148	-0.00390468
1.135	-0.00381717
1.122	-0.00374349
1.109	-0.00367113
1.096	-0.00362427
1.083	-0.00356267
1.07	-0.00344722
1.057	-0.00337542
1.044	-0.00331486
1.031	-0.00324977
1.018	-0.00319434
1.005	-0.00313698
0.992	-0.00306129
0.979	-0.00298858
0.966	-0.00292186
0.953	-0.00287669
0.94	-0.00282113
0.927	-0.00276483
0.914	-0.00270540
0.901	-0.00263293
0.888	-0.00256712
0.875	-0.00250691
0.862	-0.00244498
0.849	-0.00239054
0.836	-0.00232689
0.823	-0.00226367
0.81	-0.00220867
0.797	-0.00214920
0.784	-0.00209142
0.771	-0.00203012
0.758	-0.00197843
0.745	-0.00191961
0.732	-0.00186720
0.719	-0.00181218
0.706	-0.00175790
0.693	-0.00170653
0.68	-0.00165227
0.667	-0.00159943
0.654	-0.00154629
0.641	-0.00149704
0.628	-0.00144483
0.615	-0.00139167
0.602	-0.00134400
0.589	-0.00129373
0.576	-0.00124472
0.563	-0.00119703
0.55	-0.00114785
0.537	-0.00110009
0.524	-0.00105167
0.511	-0.00100485
0.498	-0.00096087
0.485	-0.00091341
0.472	-0.00086805
0.459	-0.00082124
0.446	-0.00077626
0.433	-0.00073190
0.42	-0.00068688
0.407	-0.00064150
0.394	-0.00059912
0.381	-0.00055594
0.368	-0.00051451
0.355	-0.00047323
0.342	-0.00043068
0.329	-0.00038826
0.316	-0.00034656
0.303	-0.00030573
0.29	-0.00026551
0.277	-0.00022575
0.264	-0.00018563
0.251	-0.00014533
0.238	-0.00010575
0.225	-0.00006830
0.212	-0.00002854
0.199	0.00001025
0.186	0.00004856
0.173	0.00008643
0.16	0.00012163
0.147	0.00015848
0.134	0.00019609
0.121	0.00023297
0.108	0.00026964
0.09500000	0.00030655
0.08200000	0.00034270
0.06900000	0.00037879
0.05600000	0.00041456
0.04300000	0.00044989
0.03000000	0.00048549
0.01700000	0.00052078
0.00400000	0.00055617
-0.00900000	0.00059131
-0.02200000	0.00062626
-0.03500000	0.00066108
-0.04800000	0.00069644
-0.06100000	0.00073175
-0.07400000	0.00076685
-0.08700000	0.00080232
-0.1	0.00083724

File: FZ_001-3_ITO+SnO2+PVSK+PEAI+Spiro+Carbon (RT)  2024-06-19 10-03-59.txt
Device Id	Operator	Recipe
FZ_001-3_ITO+SnO2+PVSK+PEAI+Spiro+Carbon (RT) 	Unknown	Jacob PVSKT _ 0.08cm2 (nature recipe).IV

Sample Area	Irradiance	Pre sweep delay	Bias Direction	Max Reverse Bias	Max Forward Bias	Num Sweep Points	Dwell Time	Current Limit	PVIV 10A I-AMP	Average	Dark Current	Rshunt V-Lo	Rshunt V-Hi
0.080000	1.0000	0.5000	0	-0.1000	1.2000	101	10	130	0	1	0	-0.6000	-0.1000

Voc V	Isc A	Jsc mA/cm2	Imax A	Vmax V	Pmax mW	Fill Factor	Efficiency	R at Voc	R at Isc	Power W	RShunt ohms	Cell Temp start	Cell Temp end	Exposure	Time	Date
0.183262	0.00065917	8.23967	0.00033218	0.09216815	0.03061613	25.3442	0.3827	271.802	284.103	0.00006097	NaN	NaN	NaN	8.422	10:03:59	06/19/2024

Vmeas	Imeas
1.2	-0.00528923
1.187	-0.00506096
1.174	-0.00494054
1.161	-0.00485097
1.148	-0.00476678
1.135	-0.00468645
1.122	-0.00459380
1.109	-0.00450651
1.096	-0.00441933
1.083	-0.00433237
1.07	-0.00424657
1.057	-0.00416953
1.044	-0.00409139
1.031	-0.00401045
1.018	-0.00392176
1.005	-0.00385030
0.992	-0.00378389
0.979	-0.00378973
0.966	-0.00378241
0.953	-0.00367336
0.94	-0.00357821
0.927	-0.00346448
0.914	-0.00338729
0.901	-0.00330453
0.888	-0.00324881
0.875	-0.00317448
0.862	-0.00309236
0.849	-0.00301734
0.836	-0.00295686
0.823	-0.00287989
0.81	-0.00279529
0.797	-0.00273593
0.784	-0.00265763
0.771	-0.00259564
0.758	-0.00253101
0.745	-0.00246023
0.732	-0.00239452
0.719	-0.00232575
0.706	-0.00226025
0.693	-0.00219513
0.68	-0.00212751
0.667	-0.00206165
0.654	-0.00199699
0.641	-0.00193669
0.628	-0.00187076
0.615	-0.00180821
0.602	-0.00174863
0.589	-0.00168754
0.576	-0.00162784
0.563	-0.00156966
0.55	-0.00150914
0.537	-0.00144595
0.524	-0.00138488
0.511	-0.00132734
0.498	-0.00126929
0.485	-0.00121271
0.472	-0.00115590
0.459	-0.00109839
0.446	-0.00104117
0.433	-0.00099066
0.42	-0.00093543
0.407	-0.00087866
0.394	-0.00082675
0.381	-0.00077191
0.368	-0.00071784
0.355	-0.00066407
0.342	-0.00061166
0.329	-0.00055910
0.316	-0.00050919
0.303	-0.00045724
0.29	-0.00040717
0.277	-0.00035601
0.264	-0.00030439
0.251	-0.00025305
0.238	-0.00020283
0.225	-0.00015368
0.212	-0.00010386
0.199	-0.00005710
0.186	-0.00001160
0.173	0.00003848
0.16	0.00008708
0.147	0.00013220
0.134	0.00018053
0.121	0.00022835
0.108	0.00027508
0.09500000	0.00032197
0.08200000	0.00036876
0.06900000	0.00041534
0.05600000	0.00046230
0.04300000	0.00050788
0.03000000	0.00055376
0.01700000	0.00059935
0.00400000	0.00064509
-0.00900000	0.00069085
-0.02200000	0.00073625
-0.03500000	0.00078150
-0.04800000	0.00082696
-0.06100000	0.00087266
-0.07400000	0.00091849
-0.08700000	0.00096415
-0.1	0.00101001

File: FZ_001-4_ITO+SnO2+PVSK+PEAI+Spiro+Carbon (RT)  2024-06-19 10-04-23.txt
Device Id	Operator	Recipe
FZ_001-4_ITO+SnO2+PVSK+PEAI+Spiro+Carbon (RT) 	Unknown	Jacob PVSKT _ 0.08cm2 (nature recipe).IV

Sample Area	Irradiance	Pre sweep delay	Bias Direction	Max Reverse Bias	Max Forward Bias	Num Sweep Points	Dwell Time	Current Limit	PVIV 10A I-AMP	Average	Dark Current	Rshunt V-Lo	Rshunt V-Hi
0.080000	1.0000	0.5000	0	-0.1000	1.2000	101	10	130	0	1	0	-0.6000	-0.1000

Voc V	Isc A	Jsc mA/cm2	Imax A	Vmax V	Pmax mW	Fill Factor	Efficiency	R at Voc	R at Isc	Power W	RShunt ohms	Cell Temp start	Cell Temp end	Exposure	Time	Date
0.242644	0.00103774	12.9717	0.00052455	0.123086	0.06456474	25.6411	0.8071	213.673	293.421	0.00012790	NaN	NaN	NaN	8.359	10:04:23	06/19/2024

Vmeas	Imeas
1.2	-0.00708324
1.187	-0.00689443
1.174	-0.00672071
1.161	-0.00655489
1.148	-0.00641130
1.135	-0.00624433
1.122	-0.00611211
1.109	-0.00598425
1.096	-0.00582857
1.083	-0.00569402
1.07	-0.00556001
1.057	-0.00543063
1.044	-0.00530967
1.031	-0.00518496
1.018	-0.00506344
1.005	-0.00493307
0.992	-0.00480574
0.979	-0.00469756
0.966	-0.00457852
0.953	-0.00446564
0.94	-0.00435867
0.927	-0.00425241
0.914	-0.00414704
0.901	-0.00403546
0.888	-0.00392857
0.875	-0.00381941
0.862	-0.00371669
0.849	-0.00360904
0.836	-0.00349969
0.823	-0.00339508
0.81	-0.00329342
0.797	-0.00319136
0.784	-0.00309607
0.771	-0.00299892
0.758	-0.00290484
0.745	-0.00281295
0.732	-0.00271927
0.719	-0.00263034
0.706	-0.00253607
0.693	-0.00244576
0.68	-0.00236083
0.667	-0.00227681
0.654	-0.00219530
0.641	-0.00211137
0.628	-0.00202650
0.615	-0.00194792
0.602	-0.00186622
0.589	-0.00178881
0.576	-0.00171337
0.563	-0.00164075
0.55	-0.00156237
0.537	-0.00149092
0.524	-0.00141822
0.511	-0.00134620
0.498	-0.00127083
0.485	-0.00119938
0.472	-0.00112707
0.459	-0.00105533
0.446	-0.00099439
0.433	-0.00091730
0.42	-0.00085225
0.407	-0.00078241
0.394	-0.00071743
0.381	-0.00065490
0.368	-0.00058772
0.355	-0.00052347
0.342	-0.00045874
0.329	-0.00039985
0.316	-0.00033980
0.303	-0.00027842
0.29	-0.00021553
0.277	-0.00015648
0.264	-0.00010188
0.251	-0.00003672
0.238	0.00002299
0.225	0.00008087
0.212	0.00013107
0.199	0.00019092
0.186	0.00024967
0.173	0.00030480
0.16	0.00036292
0.147	0.00042163
0.134	0.00047789
0.121	0.00053343
0.108	0.00058820
0.09500000	0.00064313
0.08200000	0.00069836
0.06900000	0.00075352
0.05600000	0.00080769
0.04300000	0.00086199
0.03000000	0.00091663
0.01700000	0.00097033
0.00400000	0.00102411
-0.00900000	0.00106841
-0.02200000	0.00112490
-0.03500000	0.00118076
-0.04800000	0.00123590
-0.06100000	0.00129163
-0.07400000	0.00134700
-0.08700000	0.00140281
-0.1	0.00145787

File: FZ_001-5_ITO+SnO2+PVSK+PEAI+Spiro+Carbon (RT)  2024-06-19 10-04-45.txt
Device Id	Operator	Recipe
FZ_001-5_ITO+SnO2+PVSK+PEAI+Spiro+Carbon (RT) 	Unknown	Jacob PVSKT _ 0.08cm2 (nature recipe).IV

Sample Area	Irradiance	Pre sweep delay	Bias Direction	Max Reverse Bias	Max Forward Bias	Num Sweep Points	Dwell Time	Current Limit	PVIV 10A I-AMP	Average	Dark Current	Rshunt V-Lo	Rshunt V-Hi
0.080000	1.0000	0.5000	0	-0.1000	1.2000	101	10	130	0	1	0	-0.6000	-0.1000

Voc V	Isc A	Jsc mA/cm2	Imax A	Vmax V	Pmax mW	Fill Factor	Efficiency	R at Voc	R at Isc	Power W	RShunt ohms	Cell Temp start	Cell Temp end	Exposure	Time	Date
0.426038	0.00099906	12.4882	0.00051784	0.220587	0.114228	26.8371	1.4279	394.045	479.653	0.00022250	NaN	NaN	NaN	8.562	10:04:45	06/19/2024

Vmeas	Imeas
1.2	-0.00439175
1.187	-0.00418452
1.174	-0.00393134
1.161	-0.00378389
1.148	-0.00361907
1.135	-0.00351985
1.122	-0.00341356
1.109	-0.00329868
1.096	-0.00317890
1.083	-0.00307284
1.07	-0.00297360
1.057	-0.00286995
1.044	-0.00277154
1.031	-0.00267550
1.018	-0.00258812
1.005	-0.00249086
0.992	-0.00240755
0.979	-0.00232133
0.966	-0.00224096
0.953	-0.00216509
0.94	-0.00208639
0.927	-0.00201107
0.914	-0.00194004
0.901	-0.00187227
0.888	-0.00179946
0.875	-0.00173020
0.862	-0.00166249
0.849	-0.00159465
0.836	-0.00152937
0.823	-0.00146159
0.81	-0.00139621
0.797	-0.00132873
0.784	-0.00126698
0.771	-0.00120742
0.758	-0.00114781
0.745	-0.00108823
0.732	-0.00103293
0.719	-0.00098129
0.706	-0.00092797
0.693	-0.00086777
0.68	-0.00081066
0.667	-0.00075713
0.654	-0.00070868
0.641	-0.00065854
0.628	-0.00061152
0.615	-0.00056540
0.602	-0.00052003
0.589	-0.00047548
0.576	-0.00043096
0.563	-0.00038584
0.55	-0.00034628
0.537	-0.00030443
0.524	-0.00026361
0.511	-0.00022566
0.498	-0.00018850
0.485	-0.00014973
0.472	-0.00011213
0.459	-0.00008091
0.446	-0.00004282
0.433	-0.00002730
0.42	0.00001037
0.407	0.00004822
0.394	0.00008541
0.381	0.00011367
0.368	0.00015148
0.355	0.00018556
0.342	0.00022014
0.329	0.00025344
0.316	0.00028649
0.303	0.00031908
0.29	0.00035148
0.277	0.00038303
0.264	0.00041503
0.251	0.00044553
0.238	0.00047677
0.225	0.00050743
0.212	0.00053807
0.199	0.00056798
0.186	0.00059788
0.173	0.00062660
0.16	0.00065575
0.147	0.00068471
0.134	0.00071330
0.121	0.00074174
0.108	0.00076979
0.09500000	0.00079829
0.08200000	0.00082636
0.06900000	0.00085399
0.05600000	0.00088154
0.04300000	0.00090901
0.03000000	0.00093637
0.01700000	0.00096360
0.00400000	0.00099039
-0.00900000	0.00101850
-0.02200000	0.00104458
-0.03500000	0.00106482
-0.04800000	0.00109247
-0.06100000	0.00111978
-0.07400000	0.00114745
-0.08700000	0.00117414
-0.1	0.00120083

File: FZ_001-6_ITO+SnO2+PVSK+PEAI+Spiro+Carbon (RT)  2024-06-19 10-05-27.txt
Device Id	Operator	Recipe
FZ_001-6_ITO+SnO2+PVSK+PEAI+Spiro+Carbon (RT) 	Unknown	Jacob PVSKT _ 0.08cm2 (nature recipe).IV

Sample Area	Irradiance	Pre sweep delay	Bias Direction	Max Reverse Bias	Max Forward Bias	Num Sweep Points	Dwell Time	Current Limit	PVIV 10A I-AMP	Average	Dark Current	Rshunt V-Lo	Rshunt V-Hi
0.080000	1.0000	0.5000	0	-0.1000	1.2000	101	10	130	0	1	0	-0.6000	-0.1000

Voc V	Isc A	Jsc mA/cm2	Imax A	Vmax V	Pmax mW	Fill Factor	Efficiency	R at Voc	R at Isc	Power W	RShunt ohms	Cell Temp start	Cell Temp end	Exposure	Time	Date
0.417646	0.00107387	13.4233	0.00056126	0.216289	0.121395	27.0671	1.5174	355.203	459.257	0.00023550	NaN	NaN	NaN	8.562	10:05:27	06/19/2024

Vmeas	Imeas
1.2	-0.00487180
1.187	-0.00451548
1.174	-0.00418179
1.161	-0.00406126
1.148	-0.00396472
1.135	-0.00382745
1.122	-0.00368891
1.109	-0.00360584
1.096	-0.00352070
1.083	-0.00342438
1.07	-0.00333536
1.057	-0.00320949
1.044	-0.00313214
1.031	-0.00303756
1.018	-0.00289830
1.005	-0.00281481
0.992	-0.00272507
0.979	-0.00262418
0.966	-0.00253712
0.953	-0.00245457
0.94	-0.00236116
0.927	-0.00227729
0.914	-0.00218822
0.901	-0.00209603
0.888	-0.00201354
0.875	-0.00191837
0.862	-0.00184897
0.849	-0.00177410
0.836	-0.00170733
0.823	-0.00163573
0.81	-0.00156258
0.797	-0.00148801
0.784	-0.00141802
0.771	-0.00135378
0.758	-0.00128441
0.745	-0.00122711
0.732	-0.00116447
0.719	-0.00110365
0.706	-0.00104492
0.693	-0.00099337
0.68	-0.00093285
0.667	-0.00087401
0.654	-0.00082023
0.641	-0.00076670
0.628	-0.00071443
0.615	-0.00065769
0.602	-0.00060929
0.589	-0.00055925
0.576	-0.00051222
0.563	-0.00046527
0.55	-0.00041911
0.537	-0.00037258
0.524	-0.00032986
0.511	-0.00028273
0.498	-0.00024073
0.485	-0.00019884
0.472	-0.00015700
0.459	-0.00011674
0.446	-0.00008161
0.433	-0.00003909
0.42	-0.00000426
0.407	0.00002496
0.394	0.00006534
0.381	0.00010502
0.368	0.00013584
0.355	0.00017642
0.342	0.00021623
0.329	0.00025383
0.316	0.00029074
0.303	0.00032640
0.29	0.00036202
0.277	0.00039910
0.264	0.00043353
0.251	0.00046935
0.238	0.00050408
0.225	0.00053826
0.212	0.00057258
0.199	0.00060504
0.186	0.00063796
0.173	0.00067046
0.16	0.00070249
0.147	0.00073488
0.134	0.00076600
0.121	0.00079718
0.108	0.00082805
0.09500000	0.00085870
0.08200000	0.00088924
0.06900000	0.00091883
0.05600000	0.00094906
0.04300000	0.00097863
0.03000000	0.00100881
0.01700000	0.00103872
0.00400000	0.00106241
-0.00900000	0.00109334
-0.02200000	0.00112277
-0.03500000	0.00115220
-0.04800000	0.00118153
-0.06100000	0.00121132
-0.07400000	0.00124031
-0.08700000	0.00126985
-0.1	0.00129917