Folder: YanLab/Data/IV_data/2024-06-04-A3-1_A3-6

Note: README.md
# YanLab
Projects for the Feng Yan Lab

File: A3-1-A_ITO+SnO2+PVSK+C6Br+Spiro+Carbon (Antisolvent) 2024-06-04 15-07-54.txt
Device Id	Operator	Recipe
A3-1-A_ITO+SnO2+PVSK+C6Br+Spiro+Carbon (Antisolvent)	Unknown	Jacob PVSKT _ 0.077cm^2 (nature recipe).IV

Sample Area	Irradiance	Pre sweep delay	Bias Direction	Max Reverse Bias	Max Forward Bias	Num Sweep Points	Dwell Time	Current Limit	PVIV 10A I-AMP	Average	Dark Current	Rshunt V-Lo	Rshunt V-Hi
0.077170	1.0000	0.5000	0	-0.1000	1.2000	101	10	130	0	1	0	-0.6000	-0.1000

Voc V	Isc A	Jsc mA/cm2	Imax A	Vmax V	Pmax mW	Fill Factor	Efficiency	R at Voc	R at Isc	Power W	RShunt ohms	Cell Temp start	Cell Temp end	Exposure	Time	Date
0.00954833	0.00013870	1.79737	0.00000000	NaN	NaN	NaN	NaN	84.757	54.614	0.00000059	NaN	NaN	NaN	8.375	15:07:54	06/04/2024

Vmeas	Imeas
1.2	-0.02056880
1.187	-0.01761409
1.174	-0.01796302
1.161	-0.01787927
1.148	-0.01853002
1.135	-0.01705423
1.122	-0.01686820
1.109	-0.01778492
1.096	-0.01729259
1.083	-0.01706580
1.07	-0.01691177
1.057	-0.01644966
1.044	-0.01631941
1.031	-0.01574783
1.018	-0.01613907
1.005	-0.01594940
0.992	-0.01470360
0.979	-0.01492285
0.966	-0.01494206
0.953	-0.01389188
0.94	-0.01431278
0.927	-0.01443909
0.914	-0.01410012
0.901	-0.01409770
0.888	-0.01376844
0.875	-0.01334588
0.862	-0.01291525
0.849	-0.01211913
0.836	-0.01200024
0.823	-0.01172678
0.81	-0.01153762
0.797	-0.01152328
0.784	-0.01129918
0.771	-0.01128496
0.758	-0.01106785
0.745	-0.01082653
0.732	-0.01062154
0.719	-0.01037380
0.706	-0.01013697
0.693	-0.00990430
0.68	-0.00964774
0.667	-0.00945222
0.654	-0.00915985
0.641	-0.00902538
0.628	-0.00884075
0.615	-0.00863373
0.602	-0.00842164
0.589	-0.00822094
0.576	-0.00797660
0.563	-0.00780943
0.55	-0.00758725
0.537	-0.00741012
0.524	-0.00719289
0.511	-0.00701408
0.498	-0.00683411
0.485	-0.00663872
0.472	-0.00643092
0.459	-0.00623983
0.446	-0.00604686
0.433	-0.00584666
0.42	-0.00565470
0.407	-0.00544892
0.394	-0.00524556
0.381	-0.00505300
0.368	-0.00486826
0.355	-0.00468078
0.342	-0.00449223
0.329	-0.00430482
0.316	-0.00411315
0.303	-0.00393183
0.29	-0.00374207
0.277	-0.00355560
0.264	-0.00337344
0.251	-0.00319571
0.238	-0.00301002
0.225	-0.00283168
0.212	-0.00265308
0.199	-0.00247593
0.186	-0.00229741
0.173	-0.00211737
0.16	-0.00194115
0.147	-0.00176401
0.134	-0.00158926
0.121	-0.00141477
0.108	-0.00124299
0.09500000	-0.00107397
0.08200000	-0.00089534
0.06900000	-0.00073173
0.05600000	-0.00056900
0.04300000	-0.00040749
0.03000000	-0.00024956
0.01700000	-0.00008792
0.00400000	0.00006546
-0.00900000	0.00030350
-0.02200000	0.00042542
-0.03500000	0.00054589
-0.04800000	0.00066469
-0.06100000	0.00078296
-0.07400000	0.00090045
-0.08700000	0.00101744
-0.1	0.00112962

File: A3-1-C_ITO+SnO2+PVSK+C6Br+Spiro+Carbon (Antisolvent) 2024-06-04 15-10-53.txt
Device Id	Operator	Recipe
A3-1-C_ITO+SnO2+PVSK+C6Br+Spiro+Carbon (Antisolvent)	Unknown	Jacob PVSKT _ 0.077cm^2 (nature recipe).IV

Sample Area	Irradiance	Pre sweep delay	Bias Direction	Max Reverse Bias	Max Forward Bias	Num Sweep Points	Dwell Time	Current Limit	PVIV 10A I-AMP	Average	Dark Current	Rshunt V-Lo	Rshunt V-Hi
0.077170	1.0000	0.5000	0	-0.1000	1.2000	101	10	130	0	1	0	-0.6000	-0.1000

Voc V	Isc A	Jsc mA/cm2	Imax A	Vmax V	Pmax mW	Fill Factor	Efficiency	R at Voc	R at Isc	Power W	RShunt ohms	Cell Temp start	Cell Temp end	Exposure	Time	Date
0.02061272	0.00028740	3.72425	0.00023281	0.00400000	0.00093124	15.7196	0.0121	71.2403	73.274	0.00000297	NaN	NaN	NaN	8.359	15:10:53	06/04/2024

Vmeas	Imeas
1.2	-0.01863068
1.187	-0.01859047
1.174	-0.01883072
1.161	-0.01876238
1.148	-0.01762056
1.135	-0.01747691
1.122	-0.01732102
1.109	-0.01695554
1.096	-0.01681583
1.083	-0.01674690
1.07	-0.01642850
1.057	-0.01604179
1.044	-0.01591756
1.031	-0.01541817
1.018	-0.01553654
1.005	-0.01522197
0.992	-0.01530103
0.979	-0.01513099
0.966	-0.01487760
0.953	-0.01473720
0.94	-0.01450289
0.927	-0.01410677
0.914	-0.01386271
0.901	-0.01382456
0.888	-0.01367002
0.875	-0.01343264
0.862	-0.01323225
0.849	-0.01334800
0.836	-0.01310758
0.823	-0.01294804
0.81	-0.01269152
0.797	-0.01235866
0.784	-0.01222766
0.771	-0.01209897
0.758	-0.01183623
0.745	-0.01162788
0.732	-0.01134794
0.719	-0.01102780
0.706	-0.01084396
0.693	-0.01065125
0.68	-0.01032769
0.667	-0.01015892
0.654	-0.00991674
0.641	-0.00986711
0.628	-0.00962093
0.615	-0.00936638
0.602	-0.00915503
0.589	-0.00880631
0.576	-0.00860603
0.563	-0.00834828
0.55	-0.00815187
0.537	-0.00791765
0.524	-0.00771344
0.511	-0.00748750
0.498	-0.00725985
0.485	-0.00706526
0.472	-0.00681496
0.459	-0.00662625
0.446	-0.00648712
0.433	-0.00628587
0.42	-0.00601188
0.407	-0.00582024
0.394	-0.00560643
0.381	-0.00541704
0.368	-0.00524667
0.355	-0.00505000
0.342	-0.00484728
0.329	-0.00462177
0.316	-0.00441801
0.303	-0.00423207
0.29	-0.00402516
0.277	-0.00382005
0.264	-0.00362219
0.251	-0.00342914
0.238	-0.00323076
0.225	-0.00302869
0.212	-0.00281178
0.199	-0.00261715
0.186	-0.00242662
0.173	-0.00224251
0.16	-0.00205023
0.147	-0.00185601
0.134	-0.00166187
0.121	-0.00145923
0.108	-0.00127023
0.09500000	-0.00106564
0.08200000	-0.00086265
0.06900000	-0.00068159
0.05600000	-0.00049953
0.04300000	-0.00031592
0.03000000	-0.00013177
0.01700000	0.00005071
0.00400000	0.00023281
-0.00900000	0.00041023
-0.02200000	0.00058728
-0.03500000	0.00076393
-0.04800000	0.00093969
-0.06100000	0.00112058
-0.07400000	0.00130312
-0.08700000	0.00148419
-0.1	0.00166410

File: A3-1-E_ITO+SnO2+PVSK+C6Br+Spiro+Carbon (Antisolvent) 2024-06-04 15-09-34.txt
Device Id	Operator	Recipe
A3-1-D_ITO+SnO2+PVSK+C6Br+Spiro+Carbon (Antisolvent)	Unknown	Jacob PVSKT _ 0.077cm^2 (nature recipe).IV

Sample Area	Irradiance	Pre sweep delay	Bias Direction	Max Reverse Bias	Max Forward Bias	Num Sweep Points	Dwell Time	Current Limit	PVIV 10A I-AMP	Average	Dark Current	Rshunt V-Lo	Rshunt V-Hi
0.077170	1.0000	0.5000	0	-0.1000	1.2000	101	10	130	0	1	0	-0.6000	-0.1000

Voc V	Isc A	Jsc mA/cm2	Imax A	Vmax V	Pmax mW	Fill Factor	Efficiency	R at Voc	R at Isc	Power W	RShunt ohms	Cell Temp start	Cell Temp end	Exposure	Time	Date
1.05713	0.00147044	19.0546	0.00115152	0.763114	0.878745	56.5311	11.3871	148.654	7346.290	0.00126114	NaN	NaN	NaN	8.484	15:09:34	06/04/2024

Vmeas	Imeas
1.2	-0.00096392
1.187	-0.00088247
1.174	-0.00079617
1.161	-0.00070774
1.148	-0.00061844
1.135	-0.00052902
1.122	-0.00043973
1.109	-0.00035140
1.096	-0.00026415
1.083	-0.00017802
1.07	-0.00008561
1.057	0.00000394
1.044	0.00009609
1.031	0.00018370
1.018	0.00025928
1.005	0.00033249
0.992	0.00040356
0.979	0.00047186
0.966	0.00053734
0.953	0.00059919
0.94	0.00065832
0.927	0.00071387
0.914	0.00076599
0.901	0.00081490
0.888	0.00086023
0.875	0.00090223
0.862	0.00094099
0.849	0.00097669
0.836	0.00100977
0.823	0.00103991
0.81	0.00106930
0.797	0.00109453
0.784	0.00111767
0.771	0.00113910
0.758	0.00115902
0.745	0.00117725
0.732	0.00119411
0.719	0.00120955
0.706	0.00122403
0.693	0.00123768
0.68	0.00125029
0.667	0.00126222
0.654	0.00127338
0.641	0.00128327
0.628	0.00129267
0.615	0.00130215
0.602	0.00131056
0.589	0.00131882
0.576	0.00132630
0.563	0.00133376
0.55	0.00134026
0.537	0.00134683
0.524	0.00135364
0.511	0.00135899
0.498	0.00136484
0.485	0.00136996
0.472	0.00137519
0.459	0.00138032
0.446	0.00138501
0.433	0.00138968
0.42	0.00139408
0.407	0.00139771
0.394	0.00140169
0.381	0.00140550
0.368	0.00140892
0.355	0.00141235
0.342	0.00141577
0.329	0.00141921
0.316	0.00142229
0.303	0.00142491
0.29	0.00142774
0.277	0.00143070
0.264	0.00143367
0.251	0.00143592
0.238	0.00143809
0.225	0.00144036
0.212	0.00144311
0.199	0.00144509
0.186	0.00144684
0.173	0.00144851
0.16	0.00145090
0.147	0.00145254
0.134	0.00145473
0.121	0.00145662
0.108	0.00145802
0.09500000	0.00145990
0.08200000	0.00146117
0.06900000	0.00146271
0.05600000	0.00146400
0.04300000	0.00146539
0.03000000	0.00146725
0.01700000	0.00146886
0.00400000	0.00146972
-0.00900000	0.00147425
-0.02200000	0.00147328
-0.03500000	0.00147443
-0.04800000	0.00147548
-0.06100000	0.00147645
-0.07400000	0.00147767
-0.08700000	0.00147890
-0.1	0.00148000

File: A3-2-A_ITO+SnO2+PVSK+C6Br+Spiro+Carbon (Antisolvent) 2024-06-04 15-12-56.txt
Device Id	Operator	Recipe
A3-2-A_ITO+SnO2+PVSK+C6Br+Spiro+Carbon (Antisolvent)	Unknown	Jacob PVSKT _ 0.077cm^2 (nature recipe).IV

Sample Area	Irradiance	Pre sweep delay	Bias Direction	Max Reverse Bias	Max Forward Bias	Num Sweep Points	Dwell Time	Current Limit	PVIV 10A I-AMP	Average	Dark Current	Rshunt V-Lo	Rshunt V-Hi
0.077170	1.0000	0.5000	0	-0.1000	1.2000	101	10	130	0	1	0	-0.6000	-0.1000

Voc V	Isc A	Jsc mA/cm2	Imax A	Vmax V	Pmax mW	Fill Factor	Efficiency	R at Voc	R at Isc	Power W	RShunt ohms	Cell Temp start	Cell Temp end	Exposure	Time	Date
0.00327542	0.00015752	2.0412	0.00000000	NaN	NaN	NaN	NaN	20.7937	20.794	0.00000026	NaN	NaN	NaN	8.359	15:12:56	06/04/2024

Vmeas	Imeas
1.2	-0.06865885
1.187	-0.06858805
1.174	-0.06817760
1.161	-0.06761973
1.148	-0.06692696
1.135	-0.06614725
1.122	-0.06528526
1.109	-0.06437016
1.096	-0.06360503
1.083	-0.06262338
1.07	-0.06468942
1.057	-0.06386603
1.044	-0.06334081
1.031	-0.06222197
1.018	-0.06139976
1.005	-0.06038257
0.992	-0.05958486
0.979	-0.05876965
0.966	-0.05755459
0.953	-0.05652884
0.94	-0.05572912
0.927	-0.05460678
0.914	-0.05401689
0.901	-0.05334871
0.888	-0.05248437
0.875	-0.05158982
0.862	-0.05070587
0.849	-0.04979373
0.836	-0.04876811
0.823	-0.04731719
0.81	-0.04531154
0.797	-0.04363813
0.784	-0.04284342
0.771	-0.04196205
0.758	-0.04142738
0.745	-0.04061207
0.732	-0.03982074
0.719	-0.03910134
0.706	-0.03829816
0.693	-0.03740150
0.68	-0.03647543
0.667	-0.03565944
0.654	-0.03476837
0.641	-0.03395382
0.628	-0.03317337
0.615	-0.03253421
0.602	-0.03174551
0.589	-0.03085412
0.576	-0.03003778
0.563	-0.02933484
0.55	-0.02851063
0.537	-0.02775906
0.524	-0.02701431
0.511	-0.02626682
0.498	-0.02555525
0.485	-0.02483052
0.472	-0.02411562
0.459	-0.02339024
0.446	-0.02259047
0.433	-0.02193791
0.42	-0.02121313
0.407	-0.02123645
0.394	-0.02049183
0.381	-0.01976533
0.368	-0.01904102
0.355	-0.01829487
0.342	-0.01756919
0.329	-0.01683712
0.316	-0.01611904
0.303	-0.01539646
0.29	-0.01469823
0.277	-0.01398799
0.264	-0.01329282
0.251	-0.01259101
0.238	-0.01189257
0.225	-0.01120821
0.212	-0.01051942
0.199	-0.00982246
0.186	-0.00914505
0.173	-0.00847125
0.16	-0.00779720
0.147	-0.00712919
0.134	-0.00646609
0.121	-0.00580715
0.108	-0.00515230
0.09500000	-0.00449981
0.08200000	-0.00385440
0.06900000	-0.00321208
0.05600000	-0.00256939
0.04300000	-0.00193338
0.03000000	-0.00129759
0.01700000	-0.00066551
0.00400000	-0.00003485
-0.00900000	0.00059034
-0.02200000	0.00121436
-0.03500000	0.00184906
-0.04800000	0.00248492
-0.06100000	0.00312468
-0.07400000	0.00376821
-0.08700000	0.00441529
-0.1	0.00506777

File: A3-2-B_ITO+SnO2+PVSK+C6Br+Spiro+Carbon (Antisolvent) 2024-06-04 15-13-50.txt
Device Id	Operator	Recipe
A3-2-B_ITO+SnO2+PVSK+C6Br+Spiro+Carbon (Antisolvent)	Unknown	Jacob PVSKT _ 0.077cm^2 (nature recipe).IV

Sample Area	Irradiance	Pre sweep delay	Bias Direction	Max Reverse Bias	Max Forward Bias	Num Sweep Points	Dwell Time	Current Limit	PVIV 10A I-AMP	Average	Dark Current	Rshunt V-Lo	Rshunt V-Hi
0.077170	1.0000	0.5000	0	-0.1000	1.2000	101	10	130	0	1	0	-0.6000	-0.1000

Voc V	Isc A	Jsc mA/cm2	Imax A	Vmax V	Pmax mW	Fill Factor	Efficiency	R at Voc	R at Isc	Power W	RShunt ohms	Cell Temp start	Cell Temp end	Exposure	Time	Date
0.00152336	0.00010676	1.38341	0.00000000	NaN	NaN	NaN	NaN	14.2694	14.269	0.00000008	NaN	NaN	NaN	8.172	15:13:50	06/04/2024

Vmeas	Imeas
1.2	-0.02646297
1.187	-0.04425025
1.174	-0.04800282
1.161	-0.05531282
1.148	-0.06242038
1.135	-0.07018166
1.122	-0.06931193
1.109	-0.06853002
1.096	-0.07027349
1.083	-0.06880021
1.07	-0.07221312
1.057	-0.07187697
1.044	-0.07162113
1.031	-0.07052341
1.018	-0.06758715
1.005	-0.06867141
0.992	-0.06827915
0.979	-0.06742027
0.966	-0.06864984
0.953	-0.06791433
0.94	-0.06673213
0.927	-0.06733195
0.914	-0.06217189
0.901	-0.06212163
0.888	-0.06109792
0.875	-0.06113940
0.862	-0.05942817
0.849	-0.05893008
0.836	-0.05918134
0.823	-0.05871985
0.81	-0.05705692
0.797	-0.05605799
0.784	-0.05538548
0.771	-0.05579411
0.758	-0.05593002
0.745	-0.05548688
0.732	-0.05413831
0.719	-0.05443150
0.706	-0.05321052
0.693	-0.05398706
0.68	-0.05169737
0.667	-0.05008541
0.654	-0.04951600
0.641	-0.04811672
0.628	-0.04685146
0.615	-0.04606111
0.602	-0.04499879
0.589	-0.04436997
0.576	-0.04353791
0.563	-0.04256061
0.55	-0.04203282
0.537	-0.04081958
0.524	-0.04002445
0.511	-0.03887832
0.498	-0.03776963
0.485	-0.03668404
0.472	-0.03572612
0.459	-0.03480470
0.446	-0.03372743
0.433	-0.03263522
0.42	-0.03155715
0.407	-0.03037451
0.394	-0.02936731
0.381	-0.02839814
0.368	-0.02740829
0.355	-0.02666002
0.342	-0.02562466
0.329	-0.02463994
0.316	-0.02364978
0.303	-0.02262682
0.29	-0.02162967
0.277	-0.02064693
0.264	-0.01960392
0.251	-0.01858823
0.238	-0.01760314
0.225	-0.01659634
0.212	-0.01560416
0.199	-0.01459501
0.186	-0.01359351
0.173	-0.01256358
0.16	-0.01159750
0.147	-0.01062642
0.134	-0.00963455
0.121	-0.00867464
0.108	-0.00772392
0.09500000	-0.00676907
0.08200000	-0.00581767
0.06900000	-0.00487176
0.05600000	-0.00391491
0.04300000	-0.00296744
0.03000000	-0.00203242
0.01700000	-0.00110046
0.00400000	-0.00017356
-0.00900000	0.00073748
-0.02200000	0.00159908
-0.03500000	0.00246744
-0.04800000	0.00333263
-0.06100000	0.00419437
-0.07400000	0.00504900
-0.08700000	0.00589819
-0.1	0.00671802

File: A3-2-C_ITO+SnO2+PVSK+C6Br+Spiro+Carbon (Antisolvent) 2024-06-04 15-14-15.txt
Device Id	Operator	Recipe
A3-2-C_ITO+SnO2+PVSK+C6Br+Spiro+Carbon (Antisolvent)	Unknown	Jacob PVSKT _ 0.077cm^2 (nature recipe).IV

Sample Area	Irradiance	Pre sweep delay	Bias Direction	Max Reverse Bias	Max Forward Bias	Num Sweep Points	Dwell Time	Current Limit	PVIV 10A I-AMP	Average	Dark Current	Rshunt V-Lo	Rshunt V-Hi
0.077170	1.0000	0.5000	0	-0.1000	1.2000	101	10	130	0	1	0	-0.6000	-0.1000

Voc V	Isc A	Jsc mA/cm2	Imax A	Vmax V	Pmax mW	Fill Factor	Efficiency	R at Voc	R at Isc	Power W	RShunt ohms	Cell Temp start	Cell Temp end	Exposure	Time	Date
0.00550437	0.00019973	2.58822	0.00000000	NaN	NaN	NaN	NaN	27.1299	27.723	0.00000055	NaN	NaN	NaN	8.359	15:14:15	06/04/2024

Vmeas	Imeas
1.2	-0.04595583
1.187	-0.04567334
1.174	-0.05117268
1.161	-0.05097653
1.148	-0.05018789
1.135	-0.04960337
1.122	-0.04916335
1.109	-0.04793578
1.096	-0.04749767
1.083	-0.04727163
1.07	-0.04684819
1.057	-0.04597701
1.044	-0.04533041
1.031	-0.04473454
1.018	-0.04379189
1.005	-0.04341595
0.992	-0.04255662
0.979	-0.04180975
0.966	-0.04132420
0.953	-0.04062702
0.94	-0.04016316
0.927	-0.03975335
0.914	-0.03974975
0.901	-0.03878684
0.888	-0.03842680
0.875	-0.03722333
0.862	-0.03649716
0.849	-0.03573003
0.836	-0.03515732
0.823	-0.03434236
0.81	-0.03387290
0.797	-0.03403922
0.784	-0.03309254
0.771	-0.03270742
0.758	-0.03120185
0.745	-0.03077719
0.732	-0.03073112
0.719	-0.03000758
0.706	-0.02935424
0.693	-0.02869380
0.68	-0.02842159
0.667	-0.02811090
0.654	-0.02772393
0.641	-0.02734136
0.628	-0.02623608
0.615	-0.02537332
0.602	-0.02520397
0.589	-0.02457912
0.576	-0.02437377
0.563	-0.02320374
0.55	-0.02248589
0.537	-0.02178883
0.524	-0.02149074
0.511	-0.02124361
0.498	-0.02023720
0.485	-0.01958820
0.472	-0.01878828
0.459	-0.01815952
0.446	-0.01777717
0.433	-0.01721691
0.42	-0.01663094
0.407	-0.01611704
0.394	-0.01564166
0.381	-0.01486490
0.368	-0.01429764
0.355	-0.01381142
0.342	-0.01340134
0.329	-0.01285021
0.316	-0.01227510
0.303	-0.01175784
0.29	-0.01125561
0.277	-0.01069275
0.264	-0.01017720
0.251	-0.00964172
0.238	-0.00910743
0.225	-0.00857207
0.212	-0.00803269
0.199	-0.00750211
0.186	-0.00697625
0.173	-0.00645370
0.16	-0.00593286
0.147	-0.00541805
0.134	-0.00490444
0.121	-0.00439330
0.108	-0.00388470
0.09500000	-0.00338075
0.08200000	-0.00288106
0.06900000	-0.00238757
0.05600000	-0.00189192
0.04300000	-0.00140150
0.03000000	-0.00090904
0.01700000	-0.00042373
0.00400000	0.00005545
-0.00900000	0.00052437
-0.02200000	0.00100220
-0.03500000	0.00146143
-0.04800000	0.00193686
-0.06100000	0.00241519
-0.07400000	0.00289361
-0.08700000	0.00337600
-0.1	0.00385499

File: A3-2-D_ITO+SnO2+PVSK+C6Br+Spiro+Carbon (Antisolvent) 2024-06-04 15-15-43.txt
Device Id	Operator	Recipe
A3-2-D_ITO+SnO2+PVSK+C6Br+Spiro+Carbon (Antisolvent)	Unknown	Jacob PVSKT _ 0.077cm^2 (nature recipe).IV

Sample Area	Irradiance	Pre sweep delay	Bias Direction	Max Reverse Bias	Max Forward Bias	Num Sweep Points	Dwell Time	Current Limit	PVIV 10A I-AMP	Average	Dark Current	Rshunt V-Lo	Rshunt V-Hi
0.077170	1.0000	0.5000	0	-0.1000	1.2000	101	10	130	0	1	0	-0.6000	-0.1000

Voc V	Isc A	Jsc mA/cm2	Imax A	Vmax V	Pmax mW	Fill Factor	Efficiency	R at Voc	R at Isc	Power W	RShunt ohms	Cell Temp start	Cell Temp end	Exposure	Time	Date
0.02949604	0.00026054	3.37621	0.00000000	NaN	NaN	NaN	NaN	121.127	109.457	0.00000374	NaN	NaN	NaN	8.437	15:15:43	06/04/2024

Vmeas	Imeas
1.2	-0.00896320
1.187	-0.00911090
1.174	-0.00852084
1.161	-0.00817239
1.148	-0.00889774
1.135	-0.00940824
1.122	-0.00861227
1.109	-0.00908491
1.096	-0.00855962
1.083	-0.00852410
1.07	-0.00840526
1.057	-0.00922188
1.044	-0.00881475
1.031	-0.00872621
1.018	-0.00852925
1.005	-0.00824961
0.992	-0.00754748
0.979	-0.00819762
0.966	-0.00781507
0.953	-0.00730443
0.94	-0.00765365
0.927	-0.00739408
0.914	-0.00751884
0.901	-0.00734359
0.888	-0.00723160
0.875	-0.00718354
0.862	-0.00750046
0.849	-0.00788070
0.836	-0.00780604
0.823	-0.00774562
0.81	-0.00757744
0.797	-0.00746814
0.784	-0.00725054
0.771	-0.00729671
0.758	-0.00716990
0.745	-0.00701936
0.732	-0.00668976
0.719	-0.00653801
0.706	-0.00636137
0.693	-0.00625922
0.68	-0.00661378
0.667	-0.00651056
0.654	-0.00643810
0.641	-0.00620704
0.628	-0.00608002
0.615	-0.00592320
0.602	-0.00577089
0.589	-0.00555872
0.576	-0.00544497
0.563	-0.00529196
0.55	-0.00510732
0.537	-0.00490163
0.524	-0.00488448
0.511	-0.00472169
0.498	-0.00458100
0.485	-0.00444563
0.472	-0.00436913
0.459	-0.00420604
0.446	-0.00407799
0.433	-0.00395044
0.42	-0.00381949
0.407	-0.00369234
0.394	-0.00355549
0.381	-0.00341591
0.368	-0.00328802
0.355	-0.00315041
0.342	-0.00301918
0.329	-0.00289497
0.316	-0.00276607
0.303	-0.00263585
0.29	-0.00251801
0.277	-0.00239797
0.264	-0.00226867
0.251	-0.00213678
0.238	-0.00200330
0.225	-0.00185236
0.212	-0.00172367
0.199	-0.00159781
0.186	-0.00146868
0.173	-0.00134441
0.16	-0.00121736
0.147	-0.00108728
0.134	-0.00096834
0.121	-0.00084466
0.108	-0.00072039
0.09500000	-0.00059655
0.08200000	-0.00046927
0.06900000	-0.00034817
0.05600000	-0.00022773
0.04300000	-0.00010735
0.03000000	-0.00000416
0.01700000	0.00010316
0.00400000	0.00022400
-0.00900000	0.00034277
-0.02200000	0.00045976
-0.03500000	0.00057641
-0.04800000	0.00069188
-0.06100000	0.00080788
-0.07400000	0.00092297
-0.08700000	0.00103796
-0.1	0.00115622

File: A3-4-A_ITO+SnO2+PVSK+C6Br+Spiro+Carbon (Air quench) 2024-06-04 15-19-25.txt
Device Id	Operator	Recipe
A3-3-A_ITO+SnO2+PVSK+C6Br+Spiro+Carbon (Antisolvent)	Unknown	Jacob PVSKT _ 0.077cm^2 (nature recipe).IV

Sample Area	Irradiance	Pre sweep delay	Bias Direction	Max Reverse Bias	Max Forward Bias	Num Sweep Points	Dwell Time	Current Limit	PVIV 10A I-AMP	Average	Dark Current	Rshunt V-Lo	Rshunt V-Hi
0.077170	1.0000	0.5000	0	-0.1000	1.2000	101	10	130	0	1	0	-0.6000	-0.1000

Voc V	Isc A	Jsc mA/cm2	Imax A	Vmax V	Pmax mW	Fill Factor	Efficiency	R at Voc	R at Isc	Power W	RShunt ohms	Cell Temp start	Cell Temp end	Exposure	Time	Date
0.701477	0.00137680	17.8411	0.00076328	0.367683	0.280647	29.0587	3.6367	373.558	819.348	0.00053552	NaN	NaN	NaN	8.547	15:19:25	06/04/2024

Vmeas	Imeas
1.2	-0.00191128
1.187	-0.00182084
1.174	-0.00179455
1.161	-0.00177380
1.148	-0.00175079
1.135	-0.00170068
1.122	-0.00164401
1.109	-0.00158526
1.096	-0.00151735
1.083	-0.00146051
1.07	-0.00140307
1.057	-0.00132542
1.044	-0.00125680
1.031	-0.00119608
1.018	-0.00114279
1.005	-0.00108593
0.992	-0.00101986
0.979	-0.00095070
0.966	-0.00088434
0.953	-0.00084107
0.94	-0.00077558
0.927	-0.00072247
0.914	-0.00067637
0.901	-0.00062657
0.888	-0.00057627
0.875	-0.00052790
0.862	-0.00048166
0.849	-0.00043268
0.836	-0.00038402
0.823	-0.00034737
0.81	-0.00030642
0.797	-0.00026272
0.784	-0.00022341
0.771	-0.00018654
0.758	-0.00015607
0.745	-0.00011743
0.732	-0.00007762
0.719	-0.00004282
0.706	-0.00001517
0.693	0.00002603
0.68	0.00006092
0.667	0.00009272
0.654	0.00012243
0.641	0.00016035
0.628	0.00019442
0.615	0.00022508
0.602	0.00025647
0.589	0.00028729
0.576	0.00031568
0.563	0.00034442
0.55	0.00037638
0.537	0.00040496
0.524	0.00043139
0.511	0.00045677
0.498	0.00048709
0.485	0.00051931
0.472	0.00054479
0.459	0.00057647
0.446	0.00060135
0.433	0.00062586
0.42	0.00065407
0.407	0.00067954
0.394	0.00070899
0.381	0.00073394
0.368	0.00076482
0.355	0.00078870
0.342	0.00081381
0.329	0.00084565
0.316	0.00086521
0.303	0.00089650
0.29	0.00091428
0.277	0.00093862
0.264	0.00096577
0.251	0.00098351
0.238	0.00101092
0.225	0.00103270
0.212	0.00106054
0.199	0.00107545
0.186	0.00109864
0.173	0.00111575
0.16	0.00113921
0.147	0.00116119
0.134	0.00117634
0.121	0.00120604
0.108	0.00122203
0.09500000	0.00124765
0.08200000	0.00126804
0.06900000	0.00128506
0.05600000	0.00130291
0.04300000	0.00131856
0.03000000	0.00133992
0.01700000	0.00136043
0.00400000	0.00137817
-0.00900000	0.00139257
-0.02200000	0.00140701
-0.03500000	0.00142197
-0.04800000	0.00143516
-0.06100000	0.00144818
-0.07400000	0.00146074
-0.08700000	0.00147219
-0.1	0.00148119

File: A3-4-B_ITO+SnO2+PVSK+C6Br+Spiro+Carbon (Air quench) 2024-06-04 15-20-38.txt
Device Id	Operator	Recipe
A3-4-B_ITO+SnO2+PVSK+C6Br+Spiro+Carbon (Antisolvent)	Unknown	Jacob PVSKT _ 0.077cm^2 (nature recipe).IV

Sample Area	Irradiance	Pre sweep delay	Bias Direction	Max Reverse Bias	Max Forward Bias	Num Sweep Points	Dwell Time	Current Limit	PVIV 10A I-AMP	Average	Dark Current	Rshunt V-Lo	Rshunt V-Hi
0.077170	1.0000	0.5000	0	-0.1000	1.2000	101	10	130	0	1	0	-0.6000	-0.1000

Voc V	Isc A	Jsc mA/cm2	Imax A	Vmax V	Pmax mW	Fill Factor	Efficiency	R at Voc	R at Isc	Power W	RShunt ohms	Cell Temp start	Cell Temp end	Exposure	Time	Date
0.415382	0.00111158	14.4043	0.00055537	0.211792	0.117623	25.4744	1.5242	354.292	391.008	0.00023379	NaN	NaN	NaN	8.359	15:20:38	06/04/2024

Vmeas	Imeas
1.2	-0.00339732
1.187	-0.00323698
1.174	-0.00315937
1.161	-0.00297319
1.148	-0.00286750
1.135	-0.00287332
1.122	-0.00277939
1.109	-0.00278065
1.096	-0.00270465
1.083	-0.00262258
1.07	-0.00254914
1.057	-0.00248010
1.044	-0.00240690
1.031	-0.00233706
1.018	-0.00226421
1.005	-0.00219394
0.992	-0.00212118
0.979	-0.00205513
0.966	-0.00198716
0.953	-0.00192881
0.94	-0.00186193
0.927	-0.00180513
0.914	-0.00174504
0.901	-0.00168655
0.888	-0.00163104
0.875	-0.00157731
0.862	-0.00152219
0.849	-0.00146813
0.836	-0.00141657
0.823	-0.00136426
0.81	-0.00131215
0.797	-0.00126050
0.784	-0.00120753
0.771	-0.00115433
0.758	-0.00108574
0.745	-0.00101847
0.732	-0.00099440
0.719	-0.00093875
0.706	-0.00088906
0.693	-0.00084225
0.68	-0.00078735
0.667	-0.00075269
0.654	-0.00071355
0.641	-0.00067826
0.628	-0.00063386
0.615	-0.00058266
0.602	-0.00054290
0.589	-0.00050561
0.576	-0.00046796
0.563	-0.00042785
0.55	-0.00039091
0.537	-0.00035213
0.524	-0.00031381
0.511	-0.00027569
0.498	-0.00023805
0.485	-0.00020043
0.472	-0.00016229
0.459	-0.00012438
0.446	-0.00008706
0.433	-0.00005021
0.42	-0.00001180
0.407	0.00002420
0.394	0.00006078
0.381	0.00009595
0.368	0.00013266
0.355	0.00016773
0.342	0.00020324
0.329	0.00023904
0.316	0.00027509
0.303	0.00031019
0.29	0.00034558
0.277	0.00037986
0.264	0.00041475
0.251	0.00045051
0.238	0.00048615
0.225	0.00052049
0.212	0.00055441
0.199	0.00058936
0.186	0.00062302
0.173	0.00065855
0.16	0.00069305
0.147	0.00072730
0.134	0.00076107
0.121	0.00079507
0.108	0.00082931
0.09500000	0.00086397
0.08200000	0.00089778
0.06900000	0.00093140
0.05600000	0.00096589
0.04300000	0.00099860
0.03000000	0.00103357
0.01700000	0.00106775
0.00400000	0.00110147
-0.00900000	0.00113540
-0.02200000	0.00116727
-0.03500000	0.00120103
-0.04800000	0.00123360
-0.06100000	0.00126471
-0.07400000	0.00129856
-0.08700000	0.00133264
-0.1	0.00136722