Folder: YanLab/Data/IV_data/2024-04-18

Note: README.md
# YanLab
Projects for the Feng Yan Lab

File: AD001-3_ITO+SnO2+PVSK+C6Br+Spiro+Carbon (Air Quench)  2024-04-18 20-23-05.txt
Device Id	Operator	Recipe
AD001-3_ITO+SnO2+PVSK+C6Br+Spiro+Carbon (Air Quench) 	Unknown	Jacob PVSKT _ 0.077cm^2 (nature recipe).IV

Sample Area	Irradiance	Pre sweep delay	Bias Direction	Max Reverse Bias	Max Forward Bias	Num Sweep Points	Dwell Time	Current Limit	PVIV 10A I-AMP	Average	Dark Current	Rshunt V-Lo	Rshunt V-Hi
0.077170	1.0000	0.2000	0	-0.1000	1.2000	65	10	130	0	1	0	-0.6000	-0.1000

Voc V	Isc A	Jsc mA/cm2	Imax A	Vmax V	Pmax mW	Fill Factor	Efficiency	R at Voc	R at Isc	Power W	RShunt ohms	Cell Temp start	Cell Temp end	Exposure	Time	Date
0.979486	0.00156355	20.2611	0.00117154	0.729527	0.854671	55.8070	11.0752	118.194	3797.199	0.00122817	NaN	NaN	NaN	5.750	20:23:05	04/18/2024

Vmeas	Imeas
1.2	-0.00233837
1.1797	-0.00209824
1.15935	-0.00185979
1.13905	-0.00162144
1.11875	-0.00139323
1.09845	-0.00117182
1.0781	-0.00094715
1.0578	-0.00073531
1.0375	-0.00052949
1.0172	-0.00033299
0.99685	-0.00014652
0.97655	0.00003150
0.95625	0.00019707
0.93595	0.00035341
0.9156	0.00049555
0.8953	0.00062290
0.875	0.00073556
0.8547	0.00083344
0.83435	0.00091731
0.81405	0.00098588
0.79375	0.00104478
0.77345	0.00108707
0.7531	0.00112966
0.7328	0.00116782
0.7125	0.00119830
0.6922	0.00122495
0.67185	0.00124840
0.65155	0.00126884
0.63125	0.00128774
0.61095	0.00130620
0.5906	0.00132164
0.5703	0.00133727
0.55	0.00135152
0.5297	0.00136432
0.50935	0.00137794
0.48905	0.00138929
0.46875	0.00140063
0.44845	0.00141151
0.4281	0.00142253
0.4078	0.00143258
0.3875	0.00144146
0.3672	0.00145069
0.3469	0.00145978
0.32655	0.00146744
0.30625	0.00147551
0.28595	0.00148265
0.26565	0.00148917
0.2453	0.00149615
0.225	0.00150271
0.2047	0.00151030
0.1844	0.00151708
0.16405	0.00152308
0.14375	0.00152866
0.12345	0.00153433
0.10315	0.00153963
0.08280000	0.00154493
0.06250000	0.00154995
0.04220000	0.00155565
0.02190000	0.00155972
0.00155000	0.00156419
-0.01875000	0.00156874
-0.03905000	0.00157266
-0.05935000	0.00157695
-0.07970000	0.00158073
-0.1	0.00158404

File: AD004-1_ITO+SnO2+PVSK+C6Br+Spiro+Carbon (Air Quench)  2024-04-18 20-41-02.txt
Device Id	Operator	Recipe
AD004-1_ITO+SnO2+PVSK+C6Br+Spiro+Carbon (Air Quench) 	Unknown	Jacob PVSKT _ 0.077cm^2 (nature recipe).IV

Sample Area	Irradiance	Pre sweep delay	Bias Direction	Max Reverse Bias	Max Forward Bias	Num Sweep Points	Dwell Time	Current Limit	PVIV 10A I-AMP	Average	Dark Current	Rshunt V-Lo	Rshunt V-Hi
0.077170	1.0000	0.2000	0	-0.1000	1.2000	65	10	130	0	1	0	-0.6000	-0.1000

Voc V	Isc A	Jsc mA/cm2	Imax A	Vmax V	Pmax mW	Fill Factor	Efficiency	R at Voc	R at Isc	Power W	RShunt ohms	Cell Temp start	Cell Temp end	Exposure	Time	Date
1.05319	0.00145262	18.8237	0.00129359	0.822726	1.06427	69.5652	13.7913	98.8007	33399.742	0.00136083	NaN	NaN	NaN	5.734	20:41:02	04/18/2024

Vmeas	Imeas
1.2	-0.00170299
1.1797	-0.00144739
1.15935	-0.00119488
1.13905	-0.00094323
1.11875	-0.00070450
1.09845	-0.00047368
1.0781	-0.00025132
1.0578	-0.00003965
1.0375	0.00015983
1.0172	0.00034728
0.99685	0.00051991
0.97655	0.00067578
0.95625	0.00081330
0.93595	0.00093262
0.9156	0.00103321
0.8953	0.00111014
0.875	0.00117895
0.8547	0.00123280
0.83435	0.00127383
0.81405	0.00130599
0.79375	0.00133091
0.77345	0.00134979
0.7531	0.00136467
0.7328	0.00137669
0.7125	0.00138670
0.6922	0.00139378
0.67185	0.00139983
0.65155	0.00140523
0.63125	0.00140967
0.61095	0.00141373
0.5906	0.00141757
0.5703	0.00142074
0.55	0.00142329
0.5297	0.00142573
0.50935	0.00142772
0.48905	0.00142988
0.46875	0.00143170
0.44845	0.00143368
0.4281	0.00143498
0.4078	0.00143659
0.3875	0.00143763
0.3672	0.00143885
0.3469	0.00144044
0.32655	0.00144110
0.30625	0.00144250
0.28595	0.00144388
0.26565	0.00144384
0.2453	0.00144503
0.225	0.00144560
0.2047	0.00144702
0.1844	0.00144775
0.16405	0.00144774
0.14375	0.00144870
0.12345	0.00144960
0.10315	0.00144979
0.08280000	0.00145090
0.06250000	0.00145103
0.04220000	0.00145192
0.02190000	0.00145283
0.00155000	0.00145275
-0.01875000	0.00145316
-0.03905000	0.00145329
-0.05935000	0.00145337
-0.07970000	0.00145446
-0.1	0.00145511

File: AD004-3_ITO+SnO2+PVSK+C6Br+Spiro+Carbon (Air Quench)  2024-04-18 20-44-41.txt
Device Id	Operator	Recipe
AD004-3_ITO+SnO2+PVSK+C6Br+Spiro+Carbon (Air Quench) 	Unknown	Jacob PVSKT _ 0.077cm^2 (nature recipe).IV

Sample Area	Irradiance	Pre sweep delay	Bias Direction	Max Reverse Bias	Max Forward Bias	Num Sweep Points	Dwell Time	Current Limit	PVIV 10A I-AMP	Average	Dark Current	Rshunt V-Lo	Rshunt V-Hi
0.077170	1.0000	0.2000	0	-0.1000	1.2000	65	10	130	0	1	0	-0.6000	-0.1000

Voc V	Isc A	Jsc mA/cm2	Imax A	Vmax V	Pmax mW	Fill Factor	Efficiency	R at Voc	R at Isc	Power W	RShunt ohms	Cell Temp start	Cell Temp end	Exposure	Time	Date
1.05824	0.00146291	18.957	0.00131612	0.847796	1.1158	72.0750	14.4590	88.2169	30492.204	0.00139411	NaN	NaN	NaN	5.750	20:44:41	04/18/2024

Vmeas	Imeas
1.2	-0.00184137
1.1797	-0.00156287
1.15935	-0.00128285
1.13905	-0.00100773
1.11875	-0.00073465
1.09845	-0.00047486
1.0781	-0.00022430
1.0578	0.00001358
1.0375	0.00023646
1.0172	0.00044394
0.99685	0.00063079
0.97655	0.00079544
0.95625	0.00093623
0.93595	0.00105019
0.9156	0.00113497
0.8953	0.00120982
0.875	0.00126470
0.8547	0.00130469
0.83435	0.00133387
0.81405	0.00135535
0.79375	0.00137125
0.77345	0.00138337
0.7531	0.00139267
0.7328	0.00139979
0.7125	0.00140584
0.6922	0.00141094
0.67185	0.00141551
0.65155	0.00141967
0.63125	0.00142236
0.61095	0.00142494
0.5906	0.00142795
0.5703	0.00143171
0.55	0.00143353
0.5297	0.00143548
0.50935	0.00143748
0.48905	0.00143910
0.46875	0.00144110
0.44845	0.00144255
0.4281	0.00144430
0.4078	0.00144633
0.3875	0.00144692
0.3672	0.00144811
0.3469	0.00144930
0.32655	0.00145100
0.30625	0.00145171
0.28595	0.00145286
0.26565	0.00145360
0.2453	0.00145498
0.225	0.00145548
0.2047	0.00145632
0.1844	0.00145757
0.16405	0.00145778
0.14375	0.00145867
0.12345	0.00145955
0.10315	0.00146030
0.08280000	0.00146062
0.06250000	0.00146152
0.04220000	0.00146144
0.02190000	0.00146250
0.00155000	0.00146293
-0.01875000	0.00146367
-0.03905000	0.00146388
-0.05935000	0.00146485
-0.07970000	0.00146453
-0.1	0.00146531

File: AD005-2_ITO+SnO2+PVSK+C6Br+Spiro+Carbon (Air Quench)  2024-04-18 20-49-39.txt
Device Id	Operator	Recipe
AD005-2_ITO+SnO2+PVSK+C6Br+Spiro+Carbon (Air Quench) 	Unknown	Jacob PVSKT _ 0.077cm^2 (nature recipe).IV

Sample Area	Irradiance	Pre sweep delay	Bias Direction	Max Reverse Bias	Max Forward Bias	Num Sweep Points	Dwell Time	Current Limit	PVIV 10A I-AMP	Average	Dark Current	Rshunt V-Lo	Rshunt V-Hi
0.077170	1.0000	0.2000	0	-0.1000	1.2000	65	10	130	0	1	0	-0.6000	-0.1000

Voc V	Isc A	Jsc mA/cm2	Imax A	Vmax V	Pmax mW	Fill Factor	Efficiency	R at Voc	R at Isc	Power W	RShunt ohms	Cell Temp start	Cell Temp end	Exposure	Time	Date
1.0163	0.00173392	22.4689	0.00144515	0.781219	1.12898	64.0673	14.6298	97.51	7878.735	0.00150270	NaN	NaN	NaN	5.750	20:49:39	04/18/2024

Vmeas	Imeas
1.2	-0.00221703
1.1797	-0.00195333
1.15935	-0.00171013
1.13905	-0.00146326
1.11875	-0.00116333
1.09845	-0.00091207
1.0781	-0.00067364
1.0578	-0.00044475
1.0375	-0.00021644
1.0172	-0.00000064
0.99685	0.00019797
0.97655	0.00039344
0.95625	0.00057638
0.93595	0.00074416
0.9156	0.00089025
0.8953	0.00102196
0.875	0.00112491
0.8547	0.00122628
0.83435	0.00130638
0.81405	0.00137034
0.79375	0.00142188
0.77345	0.00145984
0.7531	0.00148690
0.7328	0.00151364
0.7125	0.00153445
0.6922	0.00155330
0.67185	0.00156636
0.65155	0.00157715
0.63125	0.00158885
0.61095	0.00159815
0.5906	0.00160753
0.5703	0.00161725
0.55	0.00162427
0.5297	0.00163173
0.50935	0.00163918
0.48905	0.00164558
0.46875	0.00165238
0.44845	0.00165669
0.4281	0.00166282
0.4078	0.00166963
0.3875	0.00167409
0.3672	0.00167903
0.3469	0.00168227
0.32655	0.00168646
0.30625	0.00169069
0.28595	0.00169483
0.26565	0.00169814
0.2453	0.00170197
0.225	0.00170581
0.2047	0.00170782
0.1844	0.00171106
0.16405	0.00171351
0.14375	0.00171659
0.12345	0.00171945
0.10315	0.00172262
0.08280000	0.00172457
0.06250000	0.00172733
0.04220000	0.00173078
0.02190000	0.00173281
0.00155000	0.00173430
-0.01875000	0.00173643
-0.03905000	0.00173829
-0.05935000	0.00174070
-0.07970000	0.00174177
-0.1	0.00174369

File: AD006-1_ITO+SnO2+PVSK+C6Br+Spiro+Carbon (Air Quench)  2024-04-18 20-54-33.txt
Device Id	Operator	Recipe
AD006-1_ITO+SnO2+PVSK+C6Br+Spiro+Carbon (Air Quench) 	Unknown	Jacob PVSKT _ 0.077cm^2 (nature recipe).IV

Sample Area	Irradiance	Pre sweep delay	Bias Direction	Max Reverse Bias	Max Forward Bias	Num Sweep Points	Dwell Time	Current Limit	PVIV 10A I-AMP	Average	Dark Current	Rshunt V-Lo	Rshunt V-Hi
0.077170	1.0000	0.2000	0	-0.1000	1.2000	65	10	130	0	1	0	-0.6000	-0.1000

Voc V	Isc A	Jsc mA/cm2	Imax A	Vmax V	Pmax mW	Fill Factor	Efficiency	R at Voc	R at Isc	Power W	RShunt ohms	Cell Temp start	Cell Temp end	Exposure	Time	Date
1.00592	0.00156931	20.3357	0.00141611	0.797279	1.12903	71.5212	14.6305	86.16	33936.513	0.00141442	NaN	NaN	NaN	5.531	20:54:33	04/18/2024

Vmeas	Imeas
1.2	-0.00261467
1.1797	-0.00232608
1.15935	-0.00203433
1.13905	-0.00174518
1.11875	-0.00146013
1.09845	-0.00118007
1.0781	-0.00090014
1.0578	-0.00063397
1.0375	-0.00037617
1.0172	-0.00012812
0.99685	0.00010878
0.97655	0.00033168
0.95625	0.00053827
0.93595	0.00072720
0.9156	0.00089470
0.8953	0.00103936
0.875	0.00114835
0.8547	0.00124942
0.83435	0.00132570
0.81405	0.00138159
0.79375	0.00142228
0.77345	0.00145121
0.7531	0.00147096
0.7328	0.00148572
0.7125	0.00149735
0.6922	0.00150561
0.67185	0.00151272
0.65155	0.00151780
0.63125	0.00152180
0.61095	0.00152610
0.5906	0.00152986
0.5703	0.00153273
0.55	0.00153585
0.5297	0.00153861
0.50935	0.00154095
0.48905	0.00154268
0.46875	0.00154549
0.44845	0.00154720
0.4281	0.00154926
0.4078	0.00155129
0.3875	0.00155211
0.3672	0.00155407
0.3469	0.00155613
0.32655	0.00155682
0.30625	0.00155837
0.28595	0.00155934
0.26565	0.00156018
0.2453	0.00156187
0.225	0.00156234
0.2047	0.00156345
0.1844	0.00156439
0.16405	0.00156535
0.14375	0.00156586
0.12345	0.00156652
0.10315	0.00156696
0.08280000	0.00156747
0.06250000	0.00156822
0.04220000	0.00156881
0.02190000	0.00156857
0.00155000	0.00156957
-0.01875000	0.00157004
-0.03905000	0.00157005
-0.05935000	0.00157019
-0.07970000	0.00157081
-0.1	0.00157137

File: AD006-3_ITO+SnO2+PVSK+C6Br+Spiro+Carbon (Air Quench)  2024-04-18 20-57-35.txt
Device Id	Operator	Recipe
AD006-3_ITO+SnO2+PVSK+C6Br+Spiro+Carbon (Air Quench) 	Unknown	Jacob PVSKT _ 0.077cm^2 (nature recipe).IV

Sample Area	Irradiance	Pre sweep delay	Bias Direction	Max Reverse Bias	Max Forward Bias	Num Sweep Points	Dwell Time	Current Limit	PVIV 10A I-AMP	Average	Dark Current	Rshunt V-Lo	Rshunt V-Hi
0.077170	1.0000	0.2000	0	-0.1000	1.2000	65	10	130	0	1	0	-0.6000	-0.1000

Voc V	Isc A	Jsc mA/cm2	Imax A	Vmax V	Pmax mW	Fill Factor	Efficiency	R at Voc	R at Isc	Power W	RShunt ohms	Cell Temp start	Cell Temp end	Exposure	Time	Date
1.03083	0.00160032	20.7376	0.00138910	0.799015	1.10991	67.2810	14.3827	93.4005	20449.314	0.00144677	NaN	NaN	NaN	5.750	20:57:35	04/18/2024

Vmeas	Imeas
1.2	-0.00206115
1.1797	-0.00179992
1.15935	-0.00153509
1.13905	-0.00127369
1.11875	-0.00101778
1.09845	-0.00076487
1.0781	-0.00052230
1.0578	-0.00028759
1.0375	-0.00006470
1.0172	0.00014635
0.99685	0.00034819
0.97655	0.00053275
0.95625	0.00070083
0.93595	0.00085042
0.9156	0.00098073
0.8953	0.00107784
0.875	0.00117546
0.8547	0.00125232
0.83435	0.00131231
0.81405	0.00136069
0.79375	0.00139814
0.77345	0.00142783
0.7531	0.00145106
0.7328	0.00146963
0.7125	0.00148557
0.6922	0.00149811
0.67185	0.00150841
0.65155	0.00151732
0.63125	0.00152519
0.61095	0.00153147
0.5906	0.00153839
0.5703	0.00154378
0.55	0.00154802
0.5297	0.00155268
0.50935	0.00155670
0.48905	0.00156018
0.46875	0.00156357
0.44845	0.00156672
0.4281	0.00156930
0.4078	0.00157276
0.3875	0.00157537
0.3672	0.00157693
0.3469	0.00157922
0.32655	0.00158157
0.30625	0.00158321
0.28595	0.00158503
0.26565	0.00158632
0.2453	0.00158801
0.225	0.00158940
0.2047	0.00159090
0.1844	0.00159202
0.16405	0.00159329
0.14375	0.00159361
0.12345	0.00159523
0.10315	0.00159662
0.08280000	0.00159779
0.06250000	0.00159846
0.04220000	0.00159948
0.02190000	0.00159967
0.00155000	0.00160077
-0.01875000	0.00160129
-0.03905000	0.00160148
-0.05935000	0.00160222
-0.07970000	0.00160237
-0.1	0.00160373