Folder: YanLab/Data/IV_data/20240619 - Freezing PVSK #1 - JV Data (part 6)

File: FZ_007-4_ITO+SnO2+PVSK+PEAI+Spiro+Carbon (LN2)  2024-06-19 11-18-20.txt
Device Id	Operator	Recipe
FZ_007-4_ITO+SnO2+PVSK+PEAI+Spiro+Carbon (LN2) 	Unknown	Jacob PVSKT _ 0.08cm2 (nature recipe).IV

Sample Area	Irradiance	Pre sweep delay	Bias Direction	Max Reverse Bias	Max Forward Bias	Num Sweep Points	Dwell Time	Current Limit	PVIV 10A I-AMP	Average	Dark Current	Rshunt V-Lo	Rshunt V-Hi
0.080000	1.0000	0.5000	0	-0.1000	1.2000	101	10	130	0	1	0	-0.6000	-0.1000

Voc V	Isc A	Jsc mA/cm2	Imax A	Vmax V	Pmax mW	Fill Factor	Efficiency	R at Voc	R at Isc	Power W	RShunt ohms	Cell Temp start	Cell Temp end	Exposure	Time	Date
1.00923	0.00107104	13.388	0.00089564	0.775293	0.69438	64.2397	8.6798	128.315	16356.067	0.00093406	NaN	NaN	NaN	8.359	11:18:20	06/19/2024

Vmeas	Imeas
1.2	-0.00227383
1.187	-0.00208324
1.174	-0.00189244
1.161	-0.00170310
1.148	-0.00151831
1.135	-0.00133888
1.122	-0.00116554
1.109	-0.00099474
1.096	-0.00083762
1.083	-0.00068730
1.07	-0.00054500
1.057	-0.00041066
1.044	-0.00028458
1.031	-0.00016670
1.018	-0.00006113
1.005	0.00004395
0.992	0.00013085
0.979	0.00022375
0.966	0.00030764
0.953	0.00038371
0.94	0.00045287
0.927	0.00051525
0.914	0.00057154
0.901	0.00062192
0.888	0.00066686
0.875	0.00070682
0.862	0.00074255
0.849	0.00077420
0.836	0.00080175
0.823	0.00082663
0.81	0.00084867
0.797	0.00086778
0.784	0.00088521
0.771	0.00090043
0.758	0.00091397
0.745	0.00092645
0.732	0.00093774
0.719	0.00094707
0.706	0.00095576
0.693	0.00096371
0.68	0.00097103
0.667	0.00097803
0.654	0.00098389
0.641	0.00098933
0.628	0.00099445
0.615	0.00099913
0.602	0.00100342
0.589	0.00100731
0.576	0.00101128
0.563	0.00101477
0.55	0.00101803
0.537	0.00102104
0.524	0.00102369
0.511	0.00102632
0.498	0.00102891
0.485	0.00103128
0.472	0.00103319
0.459	0.00103527
0.446	0.00103764
0.433	0.00103980
0.42	0.00104125
0.407	0.00104296
0.394	0.00104426
0.381	0.00104663
0.368	0.00104794
0.355	0.00104899
0.342	0.00104997
0.329	0.00105019
0.316	0.00105019
0.303	0.00104816
0.29	0.00104977
0.277	0.00105188
0.264	0.00105337
0.251	0.00105483
0.238	0.00105611
0.225	0.00105753
0.212	0.00105862
0.199	0.00105924
0.186	0.00106050
0.173	0.00106102
0.16	0.00106234
0.147	0.00106331
0.134	0.00106428
0.121	0.00106472
0.108	0.00106580
0.09500000	0.00106687
0.08200000	0.00106735
0.06900000	0.00106790
0.05600000	0.00106855
0.04300000	0.00106938
0.03000000	0.00107011
0.01700000	0.00107007
0.00400000	0.00107058
-0.00900000	0.00107234
-0.02200000	0.00107196
-0.03500000	0.00107263
-0.04800000	0.00107339
-0.06100000	0.00107381
-0.07400000	0.00107412
-0.08700000	0.00107474
-0.1	0.00107504

File: FZ_007-4_ITO+SnO2+PVSK+PEAI+Spiro+Carbon (LN2)  2024-06-19 11-18-31.txt
Device Id	Operator	Recipe
FZ_007-4_ITO+SnO2+PVSK+PEAI+Spiro+Carbon (LN2) 	Unknown	Jacob PVSKT _ 0.08cm2 (nature recipe).IV

Sample Area	Irradiance	Pre sweep delay	Bias Direction	Max Reverse Bias	Max Forward Bias	Num Sweep Points	Dwell Time	Current Limit	PVIV 10A I-AMP	Average	Dark Current	Rshunt V-Lo	Rshunt V-Hi
0.080000	1.0000	0.5000	0	-0.1000	1.2000	101	10	130	0	1	0	-0.6000	-0.1000

Voc V	Isc A	Jsc mA/cm2	Imax A	Vmax V	Pmax mW	Fill Factor	Efficiency	R at Voc	R at Isc	Power W	RShunt ohms	Cell Temp start	Cell Temp end	Exposure	Time	Date
1.01039	0.00106989	13.3736	0.00089310	0.774436	0.691648	63.9822	8.6456	130.638	15673.321	0.00093258	NaN	NaN	NaN	8.359	11:18:31	06/19/2024

Vmeas	Imeas
1.2	-0.00224125
1.187	-0.00205191
1.174	-0.00186184
1.161	-0.00167427
1.148	-0.00149046
1.135	-0.00131236
1.122	-0.00114020
1.109	-0.00097120
1.096	-0.00081561
1.083	-0.00066715
1.07	-0.00052689
1.057	-0.00039451
1.044	-0.00027063
1.031	-0.00015481
1.018	-0.00005116
1.005	0.00005204
0.992	0.00013726
0.979	0.00022879
0.966	0.00031135
0.953	0.00038623
0.94	0.00045438
0.927	0.00051592
0.914	0.00057134
0.901	0.00062102
0.888	0.00066531
0.875	0.00070516
0.862	0.00074031
0.849	0.00077152
0.836	0.00079813
0.823	0.00082339
0.81	0.00084504
0.797	0.00086447
0.784	0.00088163
0.771	0.00089697
0.758	0.00091090
0.745	0.00092311
0.732	0.00093407
0.719	0.00094385
0.706	0.00095289
0.693	0.00096096
0.68	0.00096821
0.667	0.00097471
0.654	0.00098056
0.641	0.00098622
0.628	0.00099153
0.615	0.00099663
0.602	0.00100100
0.589	0.00100492
0.576	0.00100863
0.563	0.00101194
0.55	0.00101536
0.537	0.00101866
0.524	0.00102189
0.511	0.00102438
0.498	0.00102686
0.485	0.00102919
0.472	0.00103163
0.459	0.00103363
0.446	0.00103580
0.433	0.00103774
0.42	0.00103916
0.407	0.00104100
0.394	0.00104275
0.381	0.00104433
0.368	0.00104583
0.355	0.00104752
0.342	0.00104882
0.329	0.00104983
0.316	0.00105019
0.303	0.00105019
0.29	0.00104741
0.277	0.00104957
0.264	0.00105161
0.251	0.00105271
0.238	0.00105405
0.225	0.00105565
0.212	0.00105673
0.199	0.00105819
0.186	0.00105901
0.173	0.00106018
0.16	0.00106115
0.147	0.00106250
0.134	0.00106312
0.121	0.00106365
0.108	0.00106443
0.09500000	0.00106519
0.08200000	0.00106609
0.06900000	0.00106679
0.05600000	0.00106705
0.04300000	0.00106780
0.03000000	0.00106838
0.01700000	0.00106885
0.00400000	0.00106992
-0.00900000	0.00107033
-0.02200000	0.00107109
-0.03500000	0.00107157
-0.04800000	0.00107224
-0.06100000	0.00107270
-0.07400000	0.00107304
-0.08700000	0.00107371
-0.1	0.00107431

File: FZ_008-1_ITO+SnO2+PVSK+PEAI+Spiro+Carbon (LN2)  2024-06-19 11-20-30.txt
Device Id	Operator	Recipe
FZ_008-1_ITO+SnO2+PVSK+PEAI+Spiro+Carbon (LN2) 	Unknown	Jacob PVSKT _ 0.08cm2 (nature recipe).IV

Sample Area	Irradiance	Pre sweep delay	Bias Direction	Max Reverse Bias	Max Forward Bias	Num Sweep Points	Dwell Time	Current Limit	PVIV 10A I-AMP	Average	Dark Current	Rshunt V-Lo	Rshunt V-Hi
0.080000	1.0000	0.5000	0	-0.1000	1.2000	101	10	130	0	1	0	-0.6000	-0.1000

Voc V	Isc A	Jsc mA/cm2	Imax A	Vmax V	Pmax mW	Fill Factor	Efficiency	R at Voc	R at Isc	Power W	RShunt ohms	Cell Temp start	Cell Temp end	Exposure	Time	Date
0.37346	0.00086215	10.7769	0.00044294	0.189993	0.08415547	26.1368	1.0519	386.806	469.854	0.00016561	NaN	NaN	NaN	8.359	11:20:30	06/19/2024

Vmeas	Imeas
1.2	-0.00359585
1.187	-0.00346990
1.174	-0.00334924
1.161	-0.00324995
1.148	-0.00314294
1.135	-0.00305946
1.122	-0.00297857
1.109	-0.00289286
1.096	-0.00279934
1.083	-0.00270493
1.07	-0.00261851
1.057	-0.00252989
1.044	-0.00245013
1.031	-0.00237288
1.018	-0.00229182
1.005	-0.00222166
0.992	-0.00214626
0.979	-0.00207592
0.966	-0.00200819
0.953	-0.00194350
0.94	-0.00187739
0.927	-0.00181447
0.914	-0.00175324
0.901	-0.00169694
0.888	-0.00164028
0.875	-0.00158547
0.862	-0.00153124
0.849	-0.00147795
0.836	-0.00142712
0.823	-0.00137421
0.81	-0.00132529
0.797	-0.00127653
0.784	-0.00122894
0.771	-0.00118269
0.758	-0.00113565
0.745	-0.00109204
0.732	-0.00104565
0.719	-0.00100539
0.706	-0.00096117
0.693	-0.00091654
0.68	-0.00087395
0.667	-0.00083180
0.654	-0.00078890
0.641	-0.00074802
0.628	-0.00070699
0.615	-0.00066704
0.602	-0.00062772
0.589	-0.00058791
0.576	-0.00054954
0.563	-0.00051125
0.55	-0.00047345
0.537	-0.00043624
0.524	-0.00039977
0.511	-0.00036289
0.498	-0.00032677
0.485	-0.00029044
0.472	-0.00025549
0.459	-0.00022044
0.446	-0.00018549
0.433	-0.00015110
0.42	-0.00011681
0.407	-0.00008753
0.394	-0.00005269
0.381	-0.00001902
0.368	0.00001469
0.355	0.00004767
0.342	0.00008076
0.329	0.00010573
0.316	0.00013921
0.303	0.00017211
0.29	0.00020422
0.277	0.00023640
0.264	0.00026774
0.251	0.00029965
0.238	0.00033091
0.225	0.00036089
0.212	0.00039185
0.199	0.00042183
0.186	0.00045216
0.173	0.00048241
0.16	0.00051200
0.147	0.00054124
0.134	0.00057019
0.121	0.00059944
0.108	0.00062836
0.09500000	0.00065718
0.08200000	0.00068569
0.06900000	0.00071387
0.05600000	0.00074179
0.04300000	0.00077024
0.03000000	0.00079871
0.01700000	0.00082596
0.00400000	0.00085365
-0.00900000	0.00088135
-0.02200000	0.00090895
-0.03500000	0.00093634
-0.04800000	0.00096409
-0.06100000	0.00099165
-0.07400000	0.00101940
-0.08700000	0.00104701
-0.1	0.00106940

File: FZ_008-2_ITO+SnO2+PVSK+PEAI+Spiro+Carbon (LN2)  2024-06-19 11-22-46.txt
Device Id	Operator	Recipe
FZ_008-2_ITO+SnO2+PVSK+PEAI+Spiro+Carbon (LN2) 	Unknown	Jacob PVSKT _ 0.08cm2 (nature recipe).IV

Sample Area	Irradiance	Pre sweep delay	Bias Direction	Max Reverse Bias	Max Forward Bias	Num Sweep Points	Dwell Time	Current Limit	PVIV 10A I-AMP	Average	Dark Current	Rshunt V-Lo	Rshunt V-Hi
0.080000	1.0000	0.5000	0	-0.1000	1.2000	101	10	130	0	1	0	-0.6000	-0.1000

Voc V	Isc A	Jsc mA/cm2	Imax A	Vmax V	Pmax mW	Fill Factor	Efficiency	R at Voc	R at Isc	Power W	RShunt ohms	Cell Temp start	Cell Temp end	Exposure	Time	Date
1.00894	0.00097377	12.1721	0.00079568	0.772938	0.615012	62.5979	7.6876	143.06	15888.332	0.00083940	NaN	NaN	NaN	8.219	11:22:46	06/19/2024

Vmeas	Imeas
1.2	-0.00187144
1.187	-0.00173111
1.174	-0.00158677
1.161	-0.00144111
1.148	-0.00129622
1.135	-0.00115297
1.122	-0.00101228
1.109	-0.00087364
1.096	-0.00074086
1.083	-0.00061244
1.07	-0.00048898
1.057	-0.00037053
1.044	-0.00025807
1.031	-0.00015120
1.018	-0.00005703
1.005	0.00003840
0.992	0.00011470
0.979	0.00019835
0.966	0.00027414
0.953	0.00034235
0.94	0.00040386
0.927	0.00045923
0.914	0.00050865
0.901	0.00055291
0.888	0.00059192
0.875	0.00062704
0.862	0.00065796
0.849	0.00068548
0.836	0.00070964
0.823	0.00073119
0.81	0.00075092
0.797	0.00076851
0.784	0.00078394
0.771	0.00079781
0.758	0.00081011
0.745	0.00082115
0.732	0.00083163
0.719	0.00084078
0.706	0.00084967
0.693	0.00085708
0.68	0.00086388
0.667	0.00087013
0.654	0.00087640
0.641	0.00088212
0.628	0.00088670
0.615	0.00089137
0.602	0.00089600
0.589	0.00090019
0.576	0.00090389
0.563	0.00090754
0.55	0.00091112
0.537	0.00091408
0.524	0.00091794
0.511	0.00092043
0.498	0.00092332
0.485	0.00092606
0.472	0.00092867
0.459	0.00093093
0.446	0.00093305
0.433	0.00093542
0.42	0.00093708
0.407	0.00093912
0.394	0.00094122
0.381	0.00094320
0.368	0.00094462
0.355	0.00094618
0.342	0.00094796
0.329	0.00094912
0.316	0.00095065
0.303	0.00095216
0.29	0.00095336
0.277	0.00095464
0.264	0.00095626
0.251	0.00095724
0.238	0.00095821
0.225	0.00095942
0.212	0.00096037
0.199	0.00096142
0.186	0.00096245
0.173	0.00096388
0.16	0.00096449
0.147	0.00096527
0.134	0.00096621
0.121	0.00096723
0.108	0.00096781
0.09500000	0.00096927
0.08200000	0.00096965
0.06900000	0.00097014
0.05600000	0.00097125
0.04300000	0.00097218
0.03000000	0.00097250
0.01700000	0.00097291
0.00400000	0.00097340
-0.00900000	0.00097461
-0.02200000	0.00097520
-0.03500000	0.00097569
-0.04800000	0.00097619
-0.06100000	0.00097677
-0.07400000	0.00097729
-0.08700000	0.00097771
-0.1	0.00097854

File: FZ_008-3_ITO+SnO2+PVSK+PEAI+Spiro+Carbon (LN2)  2024-06-19 11-24-59.txt
Device Id	Operator	Recipe
FZ_008-3_ITO+SnO2+PVSK+PEAI+Spiro+Carbon (LN2) 	Unknown	Jacob PVSKT _ 0.08cm2 (nature recipe).IV

Sample Area	Irradiance	Pre sweep delay	Bias Direction	Max Reverse Bias	Max Forward Bias	Num Sweep Points	Dwell Time	Current Limit	PVIV 10A I-AMP	Average	Dark Current	Rshunt V-Lo	Rshunt V-Hi
0.080000	1.0000	0.5000	0	-0.1000	1.2000	101	10	130	0	1	0	-0.6000	-0.1000

Voc V	Isc A	Jsc mA/cm2	Imax A	Vmax V	Pmax mW	Fill Factor	Efficiency	R at Voc	R at Isc	Power W	RShunt ohms	Cell Temp start	Cell Temp end	Exposure	Time	Date
1.01378	0.00099570	12.4463	0.00077159	0.736641	0.568382	56.3077	7.1048	194.582	9249.197	0.00082042	NaN	NaN	NaN	8.437	11:24:59	06/19/2024

Vmeas	Imeas
1.2	-0.00134501
1.187	-0.00124165
1.174	-0.00114083
1.161	-0.00102608
1.148	-0.00091858
1.135	-0.00080989
1.122	-0.00071051
1.109	-0.00060910
1.096	-0.00051076
1.083	-0.00041618
1.07	-0.00032440
1.057	-0.00023582
1.044	-0.00015223
1.031	-0.00007489
1.018	-0.00002761
1.005	0.00004653
0.992	0.00011405
0.979	0.00017979
0.966	0.00023993
0.953	0.00029601
0.94	0.00034781
0.927	0.00039519
0.914	0.00043872
0.901	0.00047862
0.888	0.00051506
0.875	0.00054859
0.862	0.00057862
0.849	0.00060588
0.836	0.00063177
0.823	0.00065542
0.81	0.00067706
0.797	0.00069659
0.784	0.00071475
0.771	0.00073168
0.758	0.00074732
0.745	0.00076267
0.732	0.00077543
0.719	0.00079031
0.706	0.00080174
0.693	0.00081220
0.68	0.00082202
0.667	0.00083111
0.654	0.00083971
0.641	0.00084762
0.628	0.00085539
0.615	0.00086241
0.602	0.00086895
0.589	0.00087549
0.576	0.00088160
0.563	0.00088742
0.55	0.00089283
0.537	0.00089803
0.524	0.00090255
0.511	0.00090775
0.498	0.00091176
0.485	0.00091594
0.472	0.00092007
0.459	0.00092393
0.446	0.00092688
0.433	0.00093096
0.42	0.00093432
0.407	0.00093769
0.394	0.00094070
0.381	0.00094360
0.368	0.00094638
0.355	0.00094924
0.342	0.00095183
0.329	0.00095444
0.316	0.00095693
0.303	0.00095900
0.29	0.00096097
0.277	0.00096330
0.264	0.00096551
0.251	0.00096741
0.238	0.00096951
0.225	0.00097158
0.212	0.00097341
0.199	0.00097534
0.186	0.00097662
0.173	0.00097835
0.16	0.00098024
0.147	0.00098184
0.134	0.00098322
0.121	0.00098469
0.108	0.00098602
0.09500000	0.00098730
0.08200000	0.00098855
0.06900000	0.00098974
0.05600000	0.00099109
0.04300000	0.00099251
0.03000000	0.00099366
0.01700000	0.00099452
0.00400000	0.00099561
-0.00900000	0.00099724
-0.02200000	0.00099759
-0.03500000	0.00099893
-0.04800000	0.00099965
-0.06100000	0.00100069
-0.07400000	0.00100164
-0.08700000	0.00100220
-0.1	0.00100331

File: FZ_008-4_ITO+SnO2+PVSK+PEAI+Spiro+Carbon (LN2)  2024-06-19 11-26-25.txt
Device Id	Operator	Recipe
FZ_008-4_ITO+SnO2+PVSK+PEAI+Spiro+Carbon (LN2) 	Unknown	Jacob PVSKT _ 0.08cm2 (nature recipe).IV

Sample Area	Irradiance	Pre sweep delay	Bias Direction	Max Reverse Bias	Max Forward Bias	Num Sweep Points	Dwell Time	Current Limit	PVIV 10A I-AMP	Average	Dark Current	Rshunt V-Lo	Rshunt V-Hi
0.080000	1.0000	0.5000	0	-0.1000	1.2000	101	10	130	0	1	0	-0.6000	-0.1000

Voc V	Isc A	Jsc mA/cm2	Imax A	Vmax V	Pmax mW	Fill Factor	Efficiency	R at Voc	R at Isc	Power W	RShunt ohms	Cell Temp start	Cell Temp end	Exposure	Time	Date
1.03421	0.00097221	12.1526	0.00076774	0.785064	0.602722	59.9445	7.5340	157.834	11913.097	0.00084264	NaN	NaN	NaN	8.219	11:26:25	06/19/2024

Vmeas	Imeas
1.2	-0.00154567
1.187	-0.00140642
1.174	-0.00126084
1.161	-0.00111672
1.148	-0.00097828
1.135	-0.00084459
1.122	-0.00071347
1.109	-0.00058774
1.096	-0.00046792
1.083	-0.00035414
1.07	-0.00024661
1.057	-0.00014504
1.044	-0.00005388
1.031	0.00003493
1.018	0.00010402
1.005	0.00018190
0.992	0.00025225
0.979	0.00031609
0.966	0.00037400
0.953	0.00042628
0.94	0.00047324
0.927	0.00051541
0.914	0.00055302
0.901	0.00058631
0.888	0.00061637
0.875	0.00064362
0.862	0.00066759
0.849	0.00068894
0.836	0.00070671
0.823	0.00072512
0.81	0.00074147
0.797	0.00075595
0.784	0.00076914
0.771	0.00078077
0.758	0.00079171
0.745	0.00080239
0.732	0.00081173
0.719	0.00082060
0.706	0.00082843
0.693	0.00083560
0.68	0.00084309
0.667	0.00084972
0.654	0.00085561
0.641	0.00086158
0.628	0.00086721
0.615	0.00087196
0.602	0.00087712
0.589	0.00088162
0.576	0.00088597
0.563	0.00089002
0.55	0.00089394
0.537	0.00089796
0.524	0.00090159
0.511	0.00090487
0.498	0.00090836
0.485	0.00091110
0.472	0.00091424
0.459	0.00091729
0.446	0.00091981
0.433	0.00092225
0.42	0.00092506
0.407	0.00092776
0.394	0.00093029
0.381	0.00093219
0.368	0.00093412
0.355	0.00093622
0.342	0.00093832
0.329	0.00094066
0.316	0.00094187
0.303	0.00094352
0.29	0.00094572
0.277	0.00094751
0.264	0.00094920
0.251	0.00095046
0.238	0.00095183
0.225	0.00095326
0.212	0.00095473
0.199	0.00095638
0.186	0.00095743
0.173	0.00095899
0.16	0.00096023
0.147	0.00096114
0.134	0.00096220
0.121	0.00096321
0.108	0.00096450
0.09500000	0.00096534
0.08200000	0.00096616
0.06900000	0.00096704
0.05600000	0.00096859
0.04300000	0.00096938
0.03000000	0.00097045
0.01700000	0.00097132
0.00400000	0.00097190
-0.00900000	0.00097482
-0.02200000	0.00097423
-0.03500000	0.00097485
-0.04800000	0.00097540
-0.06100000	0.00097596
-0.07400000	0.00097663
-0.08700000	0.00097731
-0.1	0.00097828

File: FZ_009-1_ITO+SnO2+PVSK+PEAI+Spiro+Carbon (LN2)  2024-06-19 11-28-16.txt
Device Id	Operator	Recipe
FZ_009-1_ITO+SnO2+PVSK+PEAI+Spiro+Carbon (LN2) 	Unknown	Jacob PVSKT _ 0.08cm2 (nature recipe).IV

Sample Area	Irradiance	Pre sweep delay	Bias Direction	Max Reverse Bias	Max Forward Bias	Num Sweep Points	Dwell Time	Current Limit	PVIV 10A I-AMP	Average	Dark Current	Rshunt V-Lo	Rshunt V-Hi
0.080000	1.0000	0.5000	0	-0.1000	1.2000	101	10	130	0	1	0	-0.6000	-0.1000

Voc V	Isc A	Jsc mA/cm2	Imax A	Vmax V	Pmax mW	Fill Factor	Efficiency	R at Voc	R at Isc	Power W	RShunt ohms	Cell Temp start	Cell Temp end	Exposure	Time	Date
0.324112	0.00086077	10.7596	0.00043581	0.163853	0.07140944	25.5961	0.8926	338.631	395.158	0.00014123	NaN	NaN	NaN	8.359	11:28:16	06/19/2024

Vmeas	Imeas
1.2	-0.00411574
1.187	-0.00397471
1.174	-0.00383169
1.161	-0.00370567
1.148	-0.00359114
1.135	-0.00348121
1.122	-0.00337717
1.109	-0.00328236
1.096	-0.00319607
1.083	-0.00310290
1.07	-0.00301885
1.057	-0.00294398
1.044	-0.00286168
1.031	-0.00279094
1.018	-0.00271674
1.005	-0.00264960
0.992	-0.00258806
0.979	-0.00251540
0.966	-0.00244975
0.953	-0.00238355
0.94	-0.00232051
0.927	-0.00225823
0.914	-0.00219269
0.901	-0.00212750
0.888	-0.00206089
0.875	-0.00199903
0.862	-0.00193221
0.849	-0.00187148
0.836	-0.00181044
0.823	-0.00174988
0.81	-0.00169030
0.797	-0.00162836
0.784	-0.00157192
0.771	-0.00151307
0.758	-0.00145792
0.745	-0.00140228
0.732	-0.00134919
0.719	-0.00129743
0.706	-0.00124370
0.693	-0.00119180
0.68	-0.00114044
0.667	-0.00109105
0.654	-0.00104194
0.641	-0.00100706
0.628	-0.00095653
0.615	-0.00090855
0.602	-0.00086177
0.589	-0.00081741
0.576	-0.00077052
0.563	-0.00072615
0.55	-0.00068112
0.537	-0.00063872
0.524	-0.00059557
0.511	-0.00055355
0.498	-0.00051083
0.485	-0.00047028
0.472	-0.00042906
0.459	-0.00038863
0.446	-0.00034902
0.433	-0.00030921
0.42	-0.00026893
0.407	-0.00023079
0.394	-0.00019248
0.381	-0.00015509
0.368	-0.00011683
0.355	-0.00009229
0.342	-0.00005222
0.329	-0.00001319
0.316	0.00002407
0.303	0.00006146
0.29	0.00009763
0.277	0.00011339
0.264	0.00015431
0.251	0.00019329
0.238	0.00023131
0.225	0.00026816
0.212	0.00030463
0.199	0.00034036
0.186	0.00037635
0.173	0.00041135
0.16	0.00044612
0.147	0.00048070
0.134	0.00051536
0.121	0.00054998
0.108	0.00058407
0.09500000	0.00061788
0.08200000	0.00065181
0.06900000	0.00068509
0.05600000	0.00071818
0.04300000	0.00075156
0.03000000	0.00078479
0.01700000	0.00081773
0.00400000	0.00085069
-0.00900000	0.00088352
-0.02200000	0.00091601
-0.03500000	0.00094887
-0.04800000	0.00098141
-0.06100000	0.00101409
-0.07400000	0.00104689
-0.08700000	0.00106227
-0.1	0.00109825

File: FZ_009-2_ITO+SnO2+PVSK+PEAI+Spiro+Carbon (LN2)  2024-06-19 11-29-15.txt
Device Id	Operator	Recipe
FZ_009-2_ITO+SnO2+PVSK+PEAI+Spiro+Carbon (LN2) 	Unknown	Jacob PVSKT _ 0.08cm2 (nature recipe).IV

Sample Area	Irradiance	Pre sweep delay	Bias Direction	Max Reverse Bias	Max Forward Bias	Num Sweep Points	Dwell Time	Current Limit	PVIV 10A I-AMP	Average	Dark Current	Rshunt V-Lo	Rshunt V-Hi
0.080000	1.0000	0.5000	0	-0.1000	1.2000	101	10	130	0	1	0	-0.6000	-0.1000

Voc V	Isc A	Jsc mA/cm2	Imax A	Vmax V	Pmax mW	Fill Factor	Efficiency	R at Voc	R at Isc	Power W	RShunt ohms	Cell Temp start	Cell Temp end	Exposure	Time	Date
1.02667	0.00098448	12.306	0.00073528	0.759258	0.558264	55.2336	6.9783	174.806	6952.858	0.00081345	NaN	NaN	NaN	8.422	11:29:15	06/19/2024

Vmeas	Imeas
1.2	-0.00143672
1.187	-0.00132016
1.174	-0.00119667
1.161	-0.00107113
1.148	-0.00094412
1.135	-0.00082255
1.122	-0.00070274
1.109	-0.00058705
1.096	-0.00047604
1.083	-0.00037043
1.07	-0.00027035
1.057	-0.00017589
1.044	-0.00009146
1.031	-0.00001661
1.018	0.00006222
1.005	0.00012477
0.992	0.00019299
0.979	0.00025409
0.966	0.00030949
0.953	0.00035959
0.94	0.00040488
0.927	0.00044562
0.914	0.00048250
0.901	0.00051590
0.888	0.00054617
0.875	0.00057361
0.862	0.00059859
0.849	0.00062047
0.836	0.00064163
0.823	0.00066076
0.81	0.00067855
0.797	0.00069458
0.784	0.00070962
0.771	0.00072366
0.758	0.00073667
0.745	0.00074830
0.732	0.00075981
0.719	0.00077037
0.706	0.00078038
0.693	0.00078970
0.68	0.00079866
0.667	0.00080690
0.654	0.00081469
0.641	0.00082202
0.628	0.00082916
0.615	0.00083602
0.602	0.00084238
0.589	0.00084850
0.576	0.00085463
0.563	0.00086039
0.55	0.00086544
0.537	0.00087037
0.524	0.00087554
0.511	0.00088053
0.498	0.00088505
0.485	0.00088940
0.472	0.00089349
0.459	0.00089767
0.446	0.00090177
0.433	0.00090558
0.42	0.00090901
0.407	0.00091265
0.394	0.00091624
0.381	0.00091958
0.368	0.00092282
0.355	0.00092524
0.342	0.00092834
0.329	0.00093154
0.316	0.00093422
0.303	0.00093726
0.29	0.00094004
0.277	0.00094256
0.264	0.00094506
0.251	0.00094714
0.238	0.00094963
0.225	0.00095214
0.212	0.00095453
0.199	0.00095693
0.186	0.00095873
0.173	0.00096111
0.16	0.00096300
0.147	0.00096525
0.134	0.00096685
0.121	0.00096895
0.108	0.00097053
0.09500000	0.00097259
0.08200000	0.00097444
0.06900000	0.00097600
0.05600000	0.00097721
0.04300000	0.00097906
0.03000000	0.00098038
0.01700000	0.00098251
0.00400000	0.00098389
-0.00900000	0.00098820
-0.02200000	0.00098840
-0.03500000	0.00098951
-0.04800000	0.00099047
-0.06100000	0.00099154
-0.07400000	0.00099278
-0.08700000	0.00099412
-0.1	0.00099538

File: FZ_009-3_ITO+SnO2+PVSK+PEAI+Spiro+Carbon (LN2)  2024-06-19 11-30-33.txt
Device Id	Operator	Recipe
FZ_009-3_ITO+SnO2+PVSK+PEAI+Spiro+Carbon (LN2) 	Unknown	Jacob PVSKT _ 0.08cm2 (nature recipe).IV

Sample Area	Irradiance	Pre sweep delay	Bias Direction	Max Reverse Bias	Max Forward Bias	Num Sweep Points	Dwell Time	Current Limit	PVIV 10A I-AMP	Average	Dark Current	Rshunt V-Lo	Rshunt V-Hi
0.080000	1.0000	0.5000	0	-0.1000	1.2000	101	10	130	0	1	0	-0.6000	-0.1000

Voc V	Isc A	Jsc mA/cm2	Imax A	Vmax V	Pmax mW	Fill Factor	Efficiency	R at Voc	R at Isc	Power W	RShunt ohms	Cell Temp start	Cell Temp end	Exposure	Time	Date
1.02364	0.00097814	12.2268	0.00077486	0.785983	0.609029	60.8260	7.6129	140.205	11126.178	0.00084421	NaN	NaN	NaN	8.203	11:30:33	06/19/2024

Vmeas	Imeas
1.2	-0.00187552
1.187	-0.00171750
1.174	-0.00155586
1.161	-0.00139467
1.148	-0.00123456
1.135	-0.00107759
1.122	-0.00092259
1.109	-0.00077804
1.096	-0.00063715
1.083	-0.00050235
1.07	-0.00037520
1.057	-0.00025481
1.044	-0.00014183
1.031	-0.00004388
1.018	0.00005461
1.005	0.00012766
0.992	0.00021106
0.979	0.00028497
0.966	0.00035112
0.953	0.00040990
0.94	0.00046292
0.927	0.00050942
0.914	0.00054993
0.901	0.00058620
0.888	0.00061834
0.875	0.00064657
0.862	0.00067259
0.849	0.00069479
0.836	0.00071475
0.823	0.00073267
0.81	0.00074897
0.797	0.00076339
0.784	0.00077672
0.771	0.00078910
0.758	0.00079987
0.745	0.00081009
0.732	0.00081959
0.719	0.00082787
0.706	0.00083602
0.693	0.00084341
0.68	0.00085012
0.667	0.00085660
0.654	0.00086284
0.641	0.00086832
0.628	0.00087355
0.615	0.00087869
0.602	0.00088348
0.589	0.00088767
0.576	0.00089221
0.563	0.00089625
0.55	0.00089997
0.537	0.00090374
0.524	0.00090703
0.511	0.00091031
0.498	0.00091377
0.485	0.00091648
0.472	0.00091981
0.459	0.00092245
0.446	0.00092528
0.433	0.00092794
0.42	0.00093012
0.407	0.00093274
0.394	0.00093482
0.381	0.00093703
0.368	0.00093912
0.355	0.00094130
0.342	0.00094310
0.329	0.00094434
0.316	0.00094647
0.303	0.00094801
0.29	0.00095011
0.277	0.00095162
0.264	0.00095363
0.251	0.00095533
0.238	0.00095670
0.225	0.00095765
0.212	0.00095920
0.199	0.00096095
0.186	0.00096229
0.173	0.00096361
0.16	0.00096509
0.147	0.00096612
0.134	0.00096725
0.121	0.00096866
0.108	0.00096933
0.09500000	0.00097052
0.08200000	0.00097177
0.06900000	0.00097307
0.05600000	0.00097410
0.04300000	0.00097484
0.03000000	0.00097598
0.01700000	0.00097718
0.00400000	0.00097812
-0.00900000	0.00097967
-0.02200000	0.00098020
-0.03500000	0.00098086
-0.04800000	0.00098154
-0.06100000	0.00098249
-0.07400000	0.00098336
-0.08700000	0.00098434
-0.1	0.00098497

File: FZ_009-3_ITO+SnO2+PVSK+PEAI+Spiro+Carbon (LN2)  2024-06-19 11-30-44.txt
Device Id	Operator	Recipe
FZ_009-3_ITO+SnO2+PVSK+PEAI+Spiro+Carbon (LN2) 	Unknown	Jacob PVSKT _ 0.08cm2 (nature recipe).IV

Sample Area	Irradiance	Pre sweep delay	Bias Direction	Max Reverse Bias	Max Forward Bias	Num Sweep Points	Dwell Time	Current Limit	PVIV 10A I-AMP	Average	Dark Current	Rshunt V-Lo	Rshunt V-Hi
0.080000	1.0000	0.5000	0	-0.1000	1.2000	101	10	130	0	1	0	-0.6000	-0.1000

Voc V	Isc A	Jsc mA/cm2	Imax A	Vmax V	Pmax mW	Fill Factor	Efficiency	R at Voc	R at Isc	Power W	RShunt ohms	Cell Temp start	Cell Temp end	Exposure	Time	Date
1.02756	0.00097278	12.1597	0.00076540	0.787583	0.60282	60.3070	7.5352	149.58	10755.312	0.00083895	NaN	NaN	NaN	8.359	11:30:44	06/19/2024

Vmeas	Imeas
1.2	-0.00177965
1.187	-0.00162641
1.174	-0.00146847
1.161	-0.00131061
1.148	-0.00115533
1.135	-0.00100350
1.122	-0.00085302
1.109	-0.00071373
1.096	-0.00057794
1.083	-0.00044857
1.07	-0.00032600
1.057	-0.00021123
1.044	-0.00010383
1.031	-0.00001785
1.018	0.00007554
1.005	0.00014678
0.992	0.00022641
0.979	0.00029669
0.966	0.00035944
0.953	0.00041578
0.94	0.00046455
0.927	0.00050944
0.914	0.00054876
0.901	0.00058365
0.888	0.00061479
0.875	0.00064211
0.862	0.00066646
0.849	0.00068837
0.836	0.00070792
0.823	0.00072566
0.81	0.00074167
0.797	0.00075599
0.784	0.00076888
0.771	0.00078057
0.758	0.00079180
0.745	0.00080075
0.732	0.00081024
0.719	0.00081885
0.706	0.00082555
0.693	0.00083403
0.68	0.00084087
0.667	0.00084745
0.654	0.00085349
0.641	0.00085939
0.628	0.00086500
0.615	0.00087026
0.602	0.00087485
0.589	0.00087934
0.576	0.00088381
0.563	0.00088799
0.55	0.00089186
0.537	0.00089565
0.524	0.00089930
0.511	0.00090294
0.498	0.00090621
0.485	0.00090894
0.472	0.00091211
0.459	0.00091483
0.446	0.00091787
0.433	0.00092028
0.42	0.00092260
0.407	0.00092550
0.394	0.00092792
0.381	0.00093025
0.368	0.00093254
0.355	0.00093407
0.342	0.00093615
0.329	0.00093835
0.316	0.00094018
0.303	0.00094212
0.29	0.00094421
0.277	0.00094557
0.264	0.00094727
0.251	0.00094918
0.238	0.00095058
0.225	0.00095187
0.212	0.00095371
0.199	0.00095490
0.186	0.00095631
0.173	0.00095748
0.16	0.00095935
0.147	0.00095968
0.134	0.00096122
0.121	0.00096232
0.108	0.00096349
0.09500000	0.00096505
0.08200000	0.00096588
0.06900000	0.00096735
0.05600000	0.00096803
0.04300000	0.00096922
0.03000000	0.00096998
0.01700000	0.00097100
0.00400000	0.00097222
-0.00900000	0.00097610
-0.02200000	0.00097548
-0.03500000	0.00097610
-0.04800000	0.00097649
-0.06100000	0.00097731
-0.07400000	0.00097801
-0.08700000	0.00097953
-0.1	0.00097993