Folder: YanLab/Data/IV_data/2024-05-15-A1-1_A1-6 (part 2)

File: A1-5-A_ITO+SnO2+PVSK+C6Br+Spiro+Carbon (Air quench) 2024-05-15 14-45-02.txt
Device Id	Operator	Recipe
A1-5-A_ITO+SnO2+PVSK+C6Br+Spiro+Carbon (Air quench)	Unknown	Jacob PVSKT _ 0.077cm^2 (nature recipe).IV

Sample Area	Irradiance	Pre sweep delay	Bias Direction	Max Reverse Bias	Max Forward Bias	Num Sweep Points	Dwell Time	Current Limit	PVIV 10A I-AMP	Average	Dark Current	Rshunt V-Lo	Rshunt V-Hi
0.077170	1.0000	0.5000	1	-0.1000	1.2000	101	10	130	0	1	0	-0.6000	-0.1000

Voc V	Isc A	Jsc mA/cm2	Imax A	Vmax V	Pmax mW	Fill Factor	Efficiency	R at Voc	R at Isc	Power W	RShunt ohms	Cell Temp start	Cell Temp end	Exposure	Time	Date
1.12922	0.00153298	19.865	0.00115148	0.79838	0.919319	53.1067	11.9129	179.694	5607.803	0.00136129	NaN	NaN	NaN	8.297	14:45:02	05/15/2024

Vmeas	Imeas
-0.1	0.00154341
-0.08700000	0.00154226
-0.07400000	0.00154060
-0.06100000	0.00153928
-0.04800000	0.00153839
-0.03500000	0.00153712
-0.02200000	0.00153581
-0.00900000	0.00153444
0.00400000	0.00153368
0.01700000	0.00153157
0.03000000	0.00152973
0.04300000	0.00152864
0.05600000	0.00152664
0.06900000	0.00152467
0.08200000	0.00152280
0.09500000	0.00152036
0.108	0.00151861
0.121	0.00151616
0.134	0.00151369
0.147	0.00151140
0.16	0.00150852
0.173	0.00150626
0.186	0.00150315
0.199	0.00150044
0.212	0.00149751
0.225	0.00149405
0.238	0.00149088
0.251	0.00148796
0.264	0.00148427
0.277	0.00148060
0.29	0.00147705
0.303	0.00147340
0.316	0.00146927
0.329	0.00146548
0.342	0.00146119
0.355	0.00145657
0.368	0.00145230
0.381	0.00144754
0.394	0.00144321
0.407	0.00143785
0.42	0.00143300
0.433	0.00142740
0.446	0.00142234
0.459	0.00141657
0.472	0.00141022
0.485	0.00140414
0.498	0.00139799
0.511	0.00139203
0.524	0.00138505
0.537	0.00137828
0.55	0.00137122
0.563	0.00136375
0.576	0.00135626
0.589	0.00134819
0.602	0.00133981
0.615	0.00133085
0.628	0.00132166
0.641	0.00131276
0.654	0.00130261
0.667	0.00129257
0.68	0.00128202
0.693	0.00127059
0.706	0.00125870
0.719	0.00124648
0.732	0.00123314
0.745	0.00121957
0.758	0.00120489
0.771	0.00118947
0.784	0.00117259
0.797	0.00115464
0.81	0.00113578
0.823	0.00111539
0.836	0.00109324
0.849	0.00107005
0.862	0.00104499
0.875	0.00101828
0.888	0.00100291
0.901	0.00097003
0.914	0.00093489
0.927	0.00089777
0.94	0.00085817
0.953	0.00081643
0.966	0.00077207
0.979	0.00072441
0.992	0.00067371
1.005	0.00062079
1.018	0.00056522
1.031	0.00050724
1.044	0.00044720
1.057	0.00038438
1.07	0.00031938
1.083	0.00025254
1.096	0.00018298
1.109	0.00011135
1.122	0.00004542
1.135	-0.00003104
1.148	-0.00009383
1.161	-0.00017578
1.174	-0.00025940
1.187	-0.00034451
1.2	-0.00043182

File: A1-5-B_ITO+SnO2+PVSK+C6Br+Spiro+Carbon (Air quench) 2024-05-15 14-46-31.txt
Device Id	Operator	Recipe
A1-5-B_ITO+SnO2+PVSK+C6Br+Spiro+Carbon (Air quench)	Unknown	Jacob PVSKT _ 0.077cm^2 (nature recipe).IV

Sample Area	Irradiance	Pre sweep delay	Bias Direction	Max Reverse Bias	Max Forward Bias	Num Sweep Points	Dwell Time	Current Limit	PVIV 10A I-AMP	Average	Dark Current	Rshunt V-Lo	Rshunt V-Hi
0.077170	1.0000	0.5000	1	-0.1000	1.2000	101	10	130	0	1	0	-0.6000	-0.1000

Voc V	Isc A	Jsc mA/cm2	Imax A	Vmax V	Pmax mW	Fill Factor	Efficiency	R at Voc	R at Isc	Power W	RShunt ohms	Cell Temp start	Cell Temp end	Exposure	Time	Date
1.13879	0.00162488	21.0559	0.00131913	0.855026	1.12789	60.9534	14.6156	118.425	14147.202	0.00156109	NaN	NaN	NaN	8.234	14:46:31	05/15/2024

Vmeas	Imeas
-0.1	0.00162907
-0.08700000	0.00162796
-0.07400000	0.00162766
-0.06100000	0.00162646
-0.04800000	0.00162594
-0.03500000	0.00162599
-0.02200000	0.00162534
-0.00900000	0.00162515
0.00400000	0.00162586
0.01700000	0.00162433
0.03000000	0.00162311
0.04300000	0.00162297
0.05600000	0.00162225
0.06900000	0.00162159
0.08200000	0.00162142
0.09500000	0.00162039
0.108	0.00161953
0.121	0.00161922
0.134	0.00161811
0.147	0.00161677
0.16	0.00161605
0.173	0.00161542
0.186	0.00161430
0.199	0.00161306
0.212	0.00161123
0.225	0.00161017
0.238	0.00160874
0.251	0.00160709
0.264	0.00160517
0.277	0.00160355
0.29	0.00160208
0.303	0.00160035
0.316	0.00159815
0.329	0.00159633
0.342	0.00159427
0.355	0.00159186
0.368	0.00158990
0.381	0.00158733
0.394	0.00158434
0.407	0.00158182
0.42	0.00157910
0.433	0.00157606
0.446	0.00157227
0.459	0.00156944
0.472	0.00156566
0.485	0.00156219
0.498	0.00155861
0.511	0.00155472
0.524	0.00155022
0.537	0.00154620
0.55	0.00154127
0.563	0.00153637
0.576	0.00153172
0.589	0.00152683
0.602	0.00152148
0.615	0.00151567
0.628	0.00150983
0.641	0.00150344
0.654	0.00149722
0.667	0.00149007
0.68	0.00148278
0.693	0.00147500
0.706	0.00146665
0.719	0.00145806
0.732	0.00144868
0.745	0.00143874
0.758	0.00142865
0.771	0.00141729
0.784	0.00140498
0.797	0.00139219
0.81	0.00137813
0.823	0.00136245
0.836	0.00134536
0.849	0.00132731
0.862	0.00130689
0.875	0.00128502
0.888	0.00126049
0.901	0.00123357
0.914	0.00120415
0.927	0.00117137
0.94	0.00113537
0.953	0.00109543
0.966	0.00105138
0.979	0.00100284
0.992	0.00096659
1.005	0.00090687
1.018	0.00084167
1.031	0.00077200
1.044	0.00069676
1.057	0.00061645
1.07	0.00053086
1.083	0.00044039
1.096	0.00034488
1.109	0.00024464
1.122	0.00013959
1.135	0.00004122
1.148	-0.00007372
1.161	-0.00018192
1.174	-0.00030688
1.187	-0.00043526
1.2	-0.00056704

File: A1-5-C_ITO+SnO2+PVSK+C6Br+Spiro+Carbon (Air quench) 2024-05-15 14-47-09.txt
Device Id	Operator	Recipe
A1-5-C_ITO+SnO2+PVSK+C6Br+Spiro+Carbon (Air quench)	Unknown	Jacob PVSKT _ 0.077cm^2 (nature recipe).IV

Sample Area	Irradiance	Pre sweep delay	Bias Direction	Max Reverse Bias	Max Forward Bias	Num Sweep Points	Dwell Time	Current Limit	PVIV 10A I-AMP	Average	Dark Current	Rshunt V-Lo	Rshunt V-Hi
0.077170	1.0000	0.5000	1	-0.1000	1.2000	101	10	130	0	1	0	-0.6000	-0.1000

Voc V	Isc A	Jsc mA/cm2	Imax A	Vmax V	Pmax mW	Fill Factor	Efficiency	R at Voc	R at Isc	Power W	RShunt ohms	Cell Temp start	Cell Temp end	Exposure	Time	Date
1.0236	0.00158421	20.5289	0.00096374	0.698484	0.673155	41.5120	8.7230	189.369	1533.449	0.00111167	NaN	NaN	NaN	8.422	14:47:09	05/15/2024

Vmeas	Imeas
-0.1	0.00165037
-0.08700000	0.00164100
-0.07400000	0.00163143
-0.06100000	0.00162289
-0.04800000	0.00161489
-0.03500000	0.00160668
-0.02200000	0.00159813
-0.00900000	0.00158988
0.00400000	0.00158216
0.01700000	0.00157374
0.03000000	0.00156531
0.04300000	0.00155699
0.05600000	0.00154780
0.06900000	0.00153965
0.08200000	0.00153093
0.09500000	0.00152329
0.108	0.00151316
0.121	0.00150516
0.134	0.00149581
0.147	0.00148664
0.16	0.00147806
0.173	0.00146836
0.186	0.00145844
0.199	0.00144969
0.212	0.00144019
0.225	0.00143070
0.238	0.00142124
0.251	0.00141201
0.264	0.00140205
0.277	0.00139229
0.29	0.00138164
0.303	0.00137115
0.316	0.00136094
0.329	0.00135030
0.342	0.00133977
0.355	0.00132899
0.368	0.00131688
0.381	0.00130684
0.394	0.00129555
0.407	0.00128306
0.42	0.00127241
0.433	0.00126030
0.446	0.00124828
0.459	0.00123515
0.472	0.00122284
0.485	0.00120953
0.498	0.00119678
0.511	0.00118150
0.524	0.00117002
0.537	0.00115536
0.55	0.00114141
0.563	0.00112780
0.576	0.00111390
0.589	0.00109942
0.602	0.00108414
0.615	0.00107149
0.628	0.00105333
0.641	0.00103690
0.654	0.00101984
0.667	0.00100399
0.68	0.00098958
0.693	0.00097252
0.706	0.00095383
0.719	0.00093529
0.732	0.00091502
0.745	0.00089509
0.758	0.00087053
0.771	0.00084840
0.784	0.00082392
0.797	0.00079933
0.81	0.00077242
0.823	0.00074476
0.836	0.00071479
0.849	0.00068269
0.862	0.00065126
0.875	0.00061571
0.888	0.00057689
0.901	0.00053574
0.914	0.00049060
0.927	0.00044843
0.94	0.00039666
0.953	0.00034715
0.966	0.00029060
0.979	0.00023018
0.992	0.00016888
1.005	0.00010352
1.018	0.00003972
1.031	-0.00003882
1.044	-0.00008557
1.057	-0.00017518
1.07	-0.00026742
1.083	-0.00036055
1.096	-0.00045976
1.109	-0.00056169
1.122	-0.00066729
1.135	-0.00077579
1.148	-0.00088643
1.161	-0.00100306
1.174	-0.00110783
1.187	-0.00122713
1.2	-0.00135084

File: A1-5-D_ITO+SnO2+PVSK+C6Br+Spiro+Carbon (Air quench) 2024-05-15 14-48-32.txt
Device Id	Operator	Recipe
A1-5-D_ITO+SnO2+PVSK+C6Br+Spiro+Carbon (Air quench)	Unknown	Jacob PVSKT _ 0.077cm^2 (nature recipe).IV

Sample Area	Irradiance	Pre sweep delay	Bias Direction	Max Reverse Bias	Max Forward Bias	Num Sweep Points	Dwell Time	Current Limit	PVIV 10A I-AMP	Average	Dark Current	Rshunt V-Lo	Rshunt V-Hi
0.077170	1.0000	0.5000	1	-0.1000	1.2000	101	10	130	0	1	0	-0.6000	-0.1000

Voc V	Isc A	Jsc mA/cm2	Imax A	Vmax V	Pmax mW	Fill Factor	Efficiency	R at Voc	R at Isc	Power W	RShunt ohms	Cell Temp start	Cell Temp end	Exposure	Time	Date
1.09859	0.00164699	21.3424	0.00142911	0.828466	1.18397	65.4357	15.3423	114.887	28858.959	0.00157145	NaN	NaN	NaN	8.359	14:48:32	05/15/2024

Vmeas	Imeas
-0.1	0.00164970
-0.08700000	0.00164829
-0.07400000	0.00164845
-0.06100000	0.00164807
-0.04800000	0.00164782
-0.03500000	0.00164775
-0.02200000	0.00164733
-0.00900000	0.00164687
0.00400000	0.00164699
0.01700000	0.00164666
0.03000000	0.00164569
0.04300000	0.00164598
0.05600000	0.00164580
0.06900000	0.00164589
0.08200000	0.00164476
0.09500000	0.00164492
0.108	0.00164389
0.121	0.00164358
0.134	0.00164385
0.147	0.00164279
0.16	0.00164219
0.173	0.00164223
0.186	0.00164150
0.199	0.00164096
0.212	0.00164059
0.225	0.00163990
0.238	0.00163887
0.251	0.00163836
0.264	0.00163766
0.277	0.00163676
0.29	0.00163627
0.303	0.00163538
0.316	0.00163367
0.329	0.00163321
0.342	0.00163223
0.355	0.00163132
0.368	0.00163025
0.381	0.00162889
0.394	0.00162771
0.407	0.00162576
0.42	0.00162436
0.433	0.00162357
0.446	0.00162158
0.459	0.00161968
0.472	0.00161777
0.485	0.00161617
0.498	0.00161389
0.511	0.00161224
0.524	0.00161010
0.537	0.00160800
0.55	0.00160479
0.563	0.00160198
0.576	0.00159979
0.589	0.00159639
0.602	0.00159305
0.615	0.00158905
0.628	0.00158537
0.641	0.00158118
0.654	0.00157657
0.667	0.00157123
0.68	0.00156602
0.693	0.00155991
0.706	0.00155302
0.719	0.00154541
0.732	0.00153676
0.745	0.00152754
0.758	0.00151661
0.771	0.00150497
0.784	0.00149127
0.797	0.00147554
0.81	0.00145835
0.823	0.00143830
0.836	0.00141543
0.849	0.00138981
0.862	0.00136064
0.875	0.00132794
0.888	0.00129138
0.901	0.00125003
0.914	0.00120309
0.927	0.00115224
0.94	0.00109621
0.953	0.00103461
0.966	0.00099958
0.979	0.00092303
0.992	0.00084148
1.005	0.00075545
1.018	0.00066475
1.031	0.00056861
1.044	0.00046743
1.057	0.00036079
1.07	0.00024904
1.083	0.00013219
1.096	0.00003061
1.109	-0.00009864
1.122	-0.00020064
1.135	-0.00034184
1.148	-0.00048601
1.161	-0.00063267
1.174	-0.00078190
1.187	-0.00093341
1.2	-0.00107737

File: A1-5-E_ITO+SnO2+PVSK+C6Br+Spiro+Carbon (Air quench) 2024-05-15 14-49-59.txt
Device Id	Operator	Recipe
A1-5-E_ITO+SnO2+PVSK+C6Br+Spiro+Carbon (Air quench)	Unknown	Jacob PVSKT _ 0.077cm^2 (nature recipe).IV

Sample Area	Irradiance	Pre sweep delay	Bias Direction	Max Reverse Bias	Max Forward Bias	Num Sweep Points	Dwell Time	Current Limit	PVIV 10A I-AMP	Average	Dark Current	Rshunt V-Lo	Rshunt V-Hi
0.077170	1.0000	0.5000	1	-0.1000	1.2000	101	10	130	0	1	0	-0.6000	-0.1000

Voc V	Isc A	Jsc mA/cm2	Imax A	Vmax V	Pmax mW	Fill Factor	Efficiency	R at Voc	R at Isc	Power W	RShunt ohms	Cell Temp start	Cell Temp end	Exposure	Time	Date
1.11388	0.00182653	23.669	0.00162530	0.880794	1.43155	70.3625	18.5506	80.2852	30097.195	0.00182135	NaN	NaN	NaN	8.359	14:49:59	05/15/2024

Vmeas	Imeas
-0.1	0.00182863
-0.08700000	0.00182789
-0.07400000	0.00182779
-0.06100000	0.00182778
-0.04800000	0.00182763
-0.03500000	0.00182766
-0.02200000	0.00182719
-0.00900000	0.00182746
0.00400000	0.00182711
0.01700000	0.00182648
0.03000000	0.00182592
0.04300000	0.00182529
0.05600000	0.00182496
0.06900000	0.00182465
0.08200000	0.00182474
0.09500000	0.00182414
0.108	0.00182431
0.121	0.00182303
0.134	0.00182233
0.147	0.00182191
0.16	0.00182154
0.173	0.00182111
0.186	0.00182094
0.199	0.00182052
0.212	0.00182013
0.225	0.00181951
0.238	0.00181848
0.251	0.00181794
0.264	0.00181786
0.277	0.00181708
0.29	0.00181627
0.303	0.00181534
0.316	0.00181506
0.329	0.00181404
0.342	0.00181345
0.355	0.00181282
0.368	0.00181225
0.381	0.00181135
0.394	0.00181045
0.407	0.00180953
0.42	0.00180808
0.433	0.00180706
0.446	0.00180650
0.459	0.00180570
0.472	0.00180488
0.485	0.00180354
0.498	0.00180194
0.511	0.00180047
0.524	0.00179978
0.537	0.00179860
0.55	0.00179677
0.563	0.00179545
0.576	0.00179305
0.589	0.00179169
0.602	0.00178959
0.615	0.00178715
0.628	0.00178506
0.641	0.00178264
0.654	0.00178015
0.667	0.00177707
0.68	0.00177287
0.693	0.00176993
0.706	0.00176561
0.719	0.00176210
0.732	0.00175714
0.745	0.00175123
0.758	0.00174591
0.771	0.00173942
0.784	0.00173183
0.797	0.00172306
0.81	0.00171333
0.823	0.00170236
0.836	0.00168894
0.849	0.00167387
0.862	0.00165698
0.875	0.00163590
0.888	0.00161109
0.901	0.00158290
0.914	0.00154985
0.927	0.00151107
0.94	0.00146590
0.953	0.00141442
0.966	0.00135332
0.979	0.00128294
0.992	0.00120558
1.005	0.00111649
1.018	0.00101754
1.031	0.00093846
1.044	0.00081490
1.057	0.00068073
1.07	0.00053569
1.083	0.00038162
1.096	0.00021785
1.109	0.00006962
1.122	-0.00010500
1.135	-0.00026320
1.148	-0.00046294
1.161	-0.00066893
1.174	-0.00088086
1.187	-0.00106963
1.2	-0.00129529

File: A1-6-A_ITO+SnO2+PVSK+C6Br+Spiro+Carbon (Air quench) 2024-05-15 14-57-12.txt
Device Id	Operator	Recipe
A1-6-A_ITO+SnO2+PVSK+C6Br+Spiro+Carbon (Air quench)	Unknown	Jacob PVSKT _ 0.077cm^2 (nature recipe).IV

Sample Area	Irradiance	Pre sweep delay	Bias Direction	Max Reverse Bias	Max Forward Bias	Num Sweep Points	Dwell Time	Current Limit	PVIV 10A I-AMP	Average	Dark Current	Rshunt V-Lo	Rshunt V-Hi
0.077170	1.0000	0.5000	1	-0.1000	1.2000	101	10	130	0	1	0	-0.6000	-0.1000

Voc V	Isc A	Jsc mA/cm2	Imax A	Vmax V	Pmax mW	Fill Factor	Efficiency	R at Voc	R at Isc	Power W	RShunt ohms	Cell Temp start	Cell Temp end	Exposure	Time	Date
1.07769	0.00091767	11.8916	0.00062789	0.740715	0.465091	47.0279	6.0268	279.352	4541.434	0.00072928	NaN	NaN	NaN	8.359	14:57:12	05/15/2024

Vmeas	Imeas
-0.1	0.00093925
-0.08700000	0.00093607
-0.07400000	0.00093294
-0.06100000	0.00093004
-0.04800000	0.00092736
-0.03500000	0.00092456
-0.02200000	0.00092200
-0.00900000	0.00091945
0.00400000	0.00091850
0.01700000	0.00091423
0.03000000	0.00091155
0.04300000	0.00090887
0.05600000	0.00090612
0.06900000	0.00090328
0.08200000	0.00090064
0.09500000	0.00089795
0.108	0.00089482
0.121	0.00089203
0.134	0.00088907
0.147	0.00088585
0.16	0.00088275
0.173	0.00087970
0.186	0.00087673
0.199	0.00087343
0.212	0.00087003
0.225	0.00086674
0.238	0.00086307
0.251	0.00085969
0.264	0.00085619
0.277	0.00085252
0.29	0.00084853
0.303	0.00084492
0.316	0.00084111
0.329	0.00083691
0.342	0.00083281
0.355	0.00082857
0.368	0.00082430
0.381	0.00081982
0.394	0.00081530
0.407	0.00081051
0.42	0.00080579
0.433	0.00080094
0.446	0.00079599
0.459	0.00079081
0.472	0.00078543
0.485	0.00077989
0.498	0.00077430
0.511	0.00076869
0.524	0.00076275
0.537	0.00075646
0.55	0.00075019
0.563	0.00074376
0.576	0.00073701
0.589	0.00073017
0.602	0.00072300
0.615	0.00071548
0.628	0.00070783
0.641	0.00069999
0.654	0.00069185
0.667	0.00068328
0.68	0.00067433
0.693	0.00066509
0.706	0.00065564
0.719	0.00064567
0.732	0.00063529
0.745	0.00062422
0.758	0.00061271
0.771	0.00060068
0.784	0.00058805
0.797	0.00057474
0.81	0.00056090
0.823	0.00054607
0.836	0.00053031
0.849	0.00051383
0.862	0.00049627
0.875	0.00047777
0.888	0.00045822
0.901	0.00043750
0.914	0.00041547
0.927	0.00039225
0.94	0.00036770
0.953	0.00034161
0.966	0.00031415
0.979	0.00028509
0.992	0.00025461
1.005	0.00022261
1.018	0.00018883
1.031	0.00015355
1.044	0.00011658
1.057	0.00007853
1.07	0.00003842
1.083	-0.00000351
1.096	-0.00006632
1.109	-0.00011806
1.122	-0.00016517
1.135	-0.00021470
1.148	-0.00026579
1.161	-0.00031851
1.174	-0.00037292
1.187	-0.00042899
1.2	-0.00048665

File: A1-6-B_ITO+SnO2+PVSK+C6Br+Spiro+Carbon (Air quench) 2024-05-15 14-58-21.txt
Device Id	Operator	Recipe
A1-6-B_ITO+SnO2+PVSK+C6Br+Spiro+Carbon (Air quench)	Unknown	Jacob PVSKT _ 0.077cm^2 (nature recipe).IV

Sample Area	Irradiance	Pre sweep delay	Bias Direction	Max Reverse Bias	Max Forward Bias	Num Sweep Points	Dwell Time	Current Limit	PVIV 10A I-AMP	Average	Dark Current	Rshunt V-Lo	Rshunt V-Hi
0.077170	1.0000	0.5000	1	-0.1000	1.2000	101	10	130	0	1	0	-0.6000	-0.1000

Voc V	Isc A	Jsc mA/cm2	Imax A	Vmax V	Pmax mW	Fill Factor	Efficiency	R at Voc	R at Isc	Power W	RShunt ohms	Cell Temp start	Cell Temp end	Exposure	Time	Date
1.11859	0.00150671	19.5245	0.00116192	0.82853	0.962681	57.1195	12.4748	155.386	7822.491	0.00137201	NaN	NaN	NaN	8.297	14:58:21	05/15/2024

Vmeas	Imeas
-0.1	0.00151449
-0.08700000	0.00151331
-0.07400000	0.00151166
-0.06100000	0.00151109
-0.04800000	0.00151027
-0.03500000	0.00150944
-0.02200000	0.00150858
-0.00900000	0.00150762
0.00400000	0.00150744
0.01700000	0.00150537
0.03000000	0.00150442
0.04300000	0.00150316
0.05600000	0.00150195
0.06900000	0.00150095
0.08200000	0.00149937
0.09500000	0.00149808
0.108	0.00149686
0.121	0.00149481
0.134	0.00149348
0.147	0.00149121
0.16	0.00148927
0.173	0.00148722
0.186	0.00148541
0.199	0.00148392
0.212	0.00148160
0.225	0.00147947
0.238	0.00147681
0.251	0.00147448
0.264	0.00147185
0.277	0.00146938
0.29	0.00146653
0.303	0.00146354
0.316	0.00146079
0.329	0.00145707
0.342	0.00145394
0.355	0.00145046
0.368	0.00144735
0.381	0.00144356
0.394	0.00144011
0.407	0.00143602
0.42	0.00143213
0.433	0.00142758
0.446	0.00142288
0.459	0.00141808
0.472	0.00141352
0.485	0.00140828
0.498	0.00140304
0.511	0.00139783
0.524	0.00139196
0.537	0.00138602
0.55	0.00138021
0.563	0.00137399
0.576	0.00136735
0.589	0.00136074
0.602	0.00135374
0.615	0.00134669
0.628	0.00133882
0.641	0.00133120
0.654	0.00132284
0.667	0.00131441
0.68	0.00130578
0.693	0.00129663
0.706	0.00128717
0.719	0.00127678
0.732	0.00126607
0.745	0.00125449
0.758	0.00124292
0.771	0.00123037
0.784	0.00121674
0.797	0.00120287
0.81	0.00118724
0.823	0.00117048
0.836	0.00115205
0.849	0.00113185
0.862	0.00110991
0.875	0.00108561
0.888	0.00105866
0.901	0.00102882
0.914	0.00100432
0.927	0.00096648
0.94	0.00092455
0.953	0.00087861
0.966	0.00082867
0.979	0.00077441
0.992	0.00071688
1.005	0.00065540
1.018	0.00059071
1.031	0.00052265
1.044	0.00045182
1.057	0.00037809
1.07	0.00030166
1.083	0.00022279
1.096	0.00014164
1.109	0.00006659
1.122	-0.00002064
1.135	-0.00009276
1.148	-0.00018724
1.161	-0.00028420
1.174	-0.00038352
1.187	-0.00048499
1.2	-0.00058884

File: A1-6-C_ITO+SnO2+PVSK+C6Br+Spiro+Carbon (Air quench) 2024-05-15 14-59-13.txt
Device Id	Operator	Recipe
A1-6-C_ITO+SnO2+PVSK+C6Br+Spiro+Carbon (Air quench)	Unknown	Jacob PVSKT _ 0.077cm^2 (nature recipe).IV

Sample Area	Irradiance	Pre sweep delay	Bias Direction	Max Reverse Bias	Max Forward Bias	Num Sweep Points	Dwell Time	Current Limit	PVIV 10A I-AMP	Average	Dark Current	Rshunt V-Lo	Rshunt V-Hi
0.077170	1.0000	0.5000	1	-0.1000	1.2000	101	10	130	0	1	0	-0.6000	-0.1000

Voc V	Isc A	Jsc mA/cm2	Imax A	Vmax V	Pmax mW	Fill Factor	Efficiency	R at Voc	R at Isc	Power W	RShunt ohms	Cell Temp start	Cell Temp end	Exposure	Time	Date
1.08953	0.00172724	22.3823	0.00144659	0.780268	1.12873	59.9785	14.6265	141.06	26664.737	0.00157328	NaN	NaN	NaN	8.219	14:59:13	05/15/2024

Vmeas	Imeas
-0.1	0.00172905
-0.08700000	0.00172884
-0.07400000	0.00172848
-0.06100000	0.00172777
-0.04800000	0.00172833
-0.03500000	0.00172842
-0.02200000	0.00172755
-0.00900000	0.00172709
0.00400000	0.00172760
0.01700000	0.00172692
0.03000000	0.00172698
0.04300000	0.00172597
0.05600000	0.00172584
0.06900000	0.00172575
0.08200000	0.00172566
0.09500000	0.00172518
0.108	0.00172494
0.121	0.00172384
0.134	0.00172379
0.147	0.00172316
0.16	0.00172257
0.173	0.00172204
0.186	0.00172116
0.199	0.00172090
0.212	0.00171990
0.225	0.00171908
0.238	0.00171846
0.251	0.00171713
0.264	0.00171660
0.277	0.00171583
0.29	0.00171486
0.303	0.00171371
0.316	0.00171199
0.329	0.00171063
0.342	0.00170869
0.355	0.00170733
0.368	0.00170575
0.381	0.00170387
0.394	0.00170199
0.407	0.00169930
0.42	0.00169661
0.433	0.00169389
0.446	0.00169130
0.459	0.00168851
0.472	0.00168513
0.485	0.00168207
0.498	0.00167742
0.511	0.00167369
0.524	0.00166961
0.537	0.00166455
0.55	0.00165951
0.563	0.00165351
0.576	0.00164734
0.589	0.00164092
0.602	0.00163367
0.615	0.00162628
0.628	0.00161793
0.641	0.00160907
0.654	0.00159985
0.667	0.00158952
0.68	0.00157839
0.693	0.00156565
0.706	0.00155230
0.719	0.00153767
0.732	0.00152162
0.745	0.00150393
0.758	0.00148461
0.771	0.00146323
0.784	0.00143951
0.797	0.00141349
0.81	0.00138478
0.823	0.00135334
0.836	0.00131867
0.849	0.00128093
0.862	0.00123954
0.875	0.00119490
0.888	0.00114686
0.901	0.00109513
0.914	0.00103961
0.927	0.00099977
0.94	0.00093615
0.953	0.00086862
0.966	0.00079817
0.979	0.00072477
0.992	0.00064858
1.005	0.00056988
1.018	0.00048839
1.031	0.00040430
1.044	0.00031746
1.057	0.00022809
1.07	0.00013612
1.083	0.00005335
1.096	-0.00004421
1.109	-0.00012524
1.122	-0.00022881
1.135	-0.00033486
1.148	-0.00044236
1.161	-0.00055177
1.174	-0.00066275
1.187	-0.00077565
1.2	-0.00089026

File: A1-6-D_ITO+SnO2+PVSK+C6Br+Spiro+Carbon (Air quench) 2024-05-15 15-00-00.txt
Device Id	Operator	Recipe
A1-6-D_ITO+SnO2+PVSK+C6Br+Spiro+Carbon (Air quench)	Unknown	Jacob PVSKT _ 0.077cm^2 (nature recipe).IV

Sample Area	Irradiance	Pre sweep delay	Bias Direction	Max Reverse Bias	Max Forward Bias	Num Sweep Points	Dwell Time	Current Limit	PVIV 10A I-AMP	Average	Dark Current	Rshunt V-Lo	Rshunt V-Hi
0.077170	1.0000	0.5000	1	-0.1000	1.2000	101	10	130	0	1	0	-0.6000	-0.1000

Voc V	Isc A	Jsc mA/cm2	Imax A	Vmax V	Pmax mW	Fill Factor	Efficiency	R at Voc	R at Isc	Power W	RShunt ohms	Cell Temp start	Cell Temp end	Exposure	Time	Date
0.869079	0.00157078	20.3548	0.00096009	0.505862	0.485674	35.5770	6.2936	293.195	1249.475	0.00085255	NaN	NaN	NaN	8.375	15:00:00	05/15/2024

Vmeas	Imeas
-0.1	0.00164931
-0.08700000	0.00163863
-0.07400000	0.00162831
-0.06100000	0.00161831
-0.04800000	0.00160845
-0.03500000	0.00159872
-0.02200000	0.00158920
-0.00900000	0.00157966
0.00400000	0.00157102
0.01700000	0.00156091
0.03000000	0.00154978
0.04300000	0.00153956
0.05600000	0.00152731
0.06900000	0.00151506
0.08200000	0.00150324
0.09500000	0.00148943
0.108	0.00147523
0.121	0.00146196
0.134	0.00144680
0.147	0.00143201
0.16	0.00141936
0.173	0.00140533
0.186	0.00139099
0.199	0.00137890
0.212	0.00136711
0.225	0.00135102
0.238	0.00133733
0.251	0.00132149
0.264	0.00130752
0.277	0.00129273
0.29	0.00127881
0.303	0.00126342
0.316	0.00124419
0.329	0.00123077
0.342	0.00121525
0.355	0.00119545
0.368	0.00117650
0.381	0.00116117
0.394	0.00113793
0.407	0.00111943
0.42	0.00109983
0.433	0.00108352
0.446	0.00105875
0.459	0.00103524
0.472	0.00101586
0.485	0.00100511
0.498	0.00096984
0.511	0.00095850
0.524	0.00092290
0.537	0.00089162
0.55	0.00086578
0.563	0.00083922
0.576	0.00081380
0.589	0.00078245
0.602	0.00075482
0.615	0.00072027
0.628	0.00069913
0.641	0.00067259
0.654	0.00064785
0.667	0.00062227
0.68	0.00059036
0.693	0.00056622
0.706	0.00052449
0.719	0.00048537
0.732	0.00044440
0.745	0.00041066
0.758	0.00035888
0.771	0.00031419
0.784	0.00027848
0.797	0.00024161
0.81	0.00019375
0.823	0.00016125
0.836	0.00010333
0.849	0.00006573
0.862	0.00002222
0.875	-0.00001492
0.888	-0.00005690
0.901	-0.00006554
0.914	-0.00013075
0.927	-0.00019968
0.94	-0.00028471
0.953	-0.00037006
0.966	-0.00044179
0.979	-0.00051061
0.992	-0.00056199
1.005	-0.00062806
1.018	-0.00071037
1.031	-0.00079338
1.044	-0.00086815
1.057	-0.00093996
1.07	-0.00102907
1.083	-0.00109203
1.096	-0.00118103
1.109	-0.00126905
1.122	-0.00135724
1.135	-0.00145854
1.148	-0.00155310
1.161	-0.00164159
1.174	-0.00173520
1.187	-0.00184855
1.2	-0.00195308

File: A1-6-E_ITO+SnO2+PVSK+C6Br+Spiro+Carbon (Air quench) 2024-05-15 15-01-12.txt
Device Id	Operator	Recipe
A1-6-E_ITO+SnO2+PVSK+C6Br+Spiro+Carbon (Air quench)	Unknown	Jacob PVSKT _ 0.077cm^2 (nature recipe).IV

Sample Area	Irradiance	Pre sweep delay	Bias Direction	Max Reverse Bias	Max Forward Bias	Num Sweep Points	Dwell Time	Current Limit	PVIV 10A I-AMP	Average	Dark Current	Rshunt V-Lo	Rshunt V-Hi
0.077170	1.0000	0.5000	1	-0.1000	1.2000	101	10	130	0	1	0	-0.6000	-0.1000

Voc V	Isc A	Jsc mA/cm2	Imax A	Vmax V	Pmax mW	Fill Factor	Efficiency	R at Voc	R at Isc	Power W	RShunt ohms	Cell Temp start	Cell Temp end	Exposure	Time	Date
1.10171	0.00178329	23.1086	0.00145483	0.773086	1.12471	57.2466	14.5744	146.435	16461.547	0.00161093	NaN	NaN	NaN	8.219	15:01:12	05/15/2024

Vmeas	Imeas
-0.1	0.00178593
-0.08700000	0.00178564
-0.07400000	0.00178543
-0.06100000	0.00178505
-0.04800000	0.00178503
-0.03500000	0.00178393
-0.02200000	0.00178403
-0.00900000	0.00178397
0.00400000	0.00178353
0.01700000	0.00178278
0.03000000	0.00178236
0.04300000	0.00178166
0.05600000	0.00178143
0.06900000	0.00178075
0.08200000	0.00177968
0.09500000	0.00177945
0.108	0.00177859
0.121	0.00177867
0.134	0.00177764
0.147	0.00177614
0.16	0.00177583
0.173	0.00177506
0.186	0.00177385
0.199	0.00177325
0.212	0.00177212
0.225	0.00177047
0.238	0.00176949
0.251	0.00176820
0.264	0.00176676
0.277	0.00176545
0.29	0.00176357
0.303	0.00176219
0.316	0.00175999
0.329	0.00175772
0.342	0.00175607
0.355	0.00175401
0.368	0.00175185
0.381	0.00174861
0.394	0.00174573
0.407	0.00174344
0.42	0.00173965
0.433	0.00173643
0.446	0.00173312
0.459	0.00172818
0.472	0.00172471
0.485	0.00172002
0.498	0.00171498
0.511	0.00170986
0.524	0.00170391
0.537	0.00169763
0.55	0.00169155
0.563	0.00168411
0.576	0.00167646
0.589	0.00166830
0.602	0.00165872
0.615	0.00164918
0.628	0.00163897
0.641	0.00162840
0.654	0.00161571
0.667	0.00160304
0.68	0.00158951
0.693	0.00157484
0.706	0.00155903
0.719	0.00154177
0.732	0.00152312
0.745	0.00150335
0.758	0.00148171
0.771	0.00145866
0.784	0.00143383
0.797	0.00140668
0.81	0.00137682
0.823	0.00134525
0.836	0.00131065
0.849	0.00127402
0.862	0.00123465
0.875	0.00119205
0.888	0.00114665
0.901	0.00109832
0.914	0.00104746
0.927	0.00101566
0.94	0.00095619
0.953	0.00089339
0.966	0.00082828
0.979	0.00076035
0.992	0.00069044
1.005	0.00061737
1.018	0.00054163
1.031	0.00046356
1.044	0.00038283
1.057	0.00029945
1.07	0.00021352
1.083	0.00012520
1.096	0.00004698
1.109	-0.00004771
1.122	-0.00012466
1.135	-0.00022620
1.148	-0.00032958
1.161	-0.00043495
1.174	-0.00054183
1.187	-0.00065070
1.2	-0.00076123