Folder: YanLab/Data/IV_data/20240619 - Freezing PVSK #1 - JV Data (part 3)

File: FZ_003-4_ITO+SnO2+PVSK+PEAI+Spiro+Carbon (RT)  2024-06-19 10-21-12.txt
Device Id	Operator	Recipe
FZ_003-4_ITO+SnO2+PVSK+PEAI+Spiro+Carbon (RT) 	Unknown	Jacob PVSKT _ 0.08cm2 (nature recipe).IV

Sample Area	Irradiance	Pre sweep delay	Bias Direction	Max Reverse Bias	Max Forward Bias	Num Sweep Points	Dwell Time	Current Limit	PVIV 10A I-AMP	Average	Dark Current	Rshunt V-Lo	Rshunt V-Hi
0.080000	1.0000	0.5000	0	-0.1000	1.2000	101	10	130	0	1	0	-0.6000	-0.1000

Voc V	Isc A	Jsc mA/cm2	Imax A	Vmax V	Pmax mW	Fill Factor	Efficiency	R at Voc	R at Isc	Power W	RShunt ohms	Cell Temp start	Cell Temp end	Exposure	Time	Date
1.08983	0.00167430	20.9288	0.00132513	0.715601	0.948266	51.9682	11.8533	163.503	7291.815	0.00143111	NaN	NaN	NaN	8.297	10:21:12	06/19/2024

Vmeas	Imeas
1.2	-0.00078479
1.187	-0.00067645
1.174	-0.00057166
1.161	-0.00047160
1.148	-0.00037579
1.135	-0.00028377
1.122	-0.00019524
1.109	-0.00011017
1.096	-0.00002856
1.083	0.00005123
1.07	0.00012423
1.057	0.00020047
1.044	0.00027297
1.031	0.00034251
1.018	0.00040950
1.005	0.00047393
0.992	0.00053561
0.979	0.00059473
0.966	0.00065183
0.953	0.00070599
0.94	0.00075804
0.927	0.00080759
0.914	0.00085482
0.901	0.00089968
0.888	0.00094283
0.875	0.00098379
0.862	0.00102267
0.849	0.00105018
0.836	0.00103747
0.823	0.00107989
0.81	0.00111784
0.797	0.00115302
0.784	0.00118553
0.771	0.00121582
0.758	0.00124374
0.745	0.00127010
0.732	0.00129470
0.719	0.00131797
0.706	0.00133939
0.693	0.00135991
0.68	0.00137768
0.667	0.00139575
0.654	0.00141211
0.641	0.00142777
0.628	0.00144272
0.615	0.00145498
0.602	0.00146807
0.589	0.00148048
0.576	0.00149199
0.563	0.00150298
0.55	0.00151294
0.537	0.00152269
0.524	0.00153173
0.511	0.00154001
0.498	0.00154811
0.485	0.00155584
0.472	0.00156277
0.459	0.00156922
0.446	0.00157579
0.433	0.00158175
0.42	0.00158648
0.407	0.00159302
0.394	0.00159774
0.381	0.00160273
0.368	0.00160714
0.355	0.00161143
0.342	0.00161552
0.329	0.00161997
0.316	0.00162353
0.303	0.00162635
0.29	0.00162990
0.277	0.00163331
0.264	0.00163596
0.251	0.00163911
0.238	0.00164170
0.225	0.00164473
0.212	0.00164716
0.199	0.00164922
0.186	0.00165158
0.173	0.00165369
0.16	0.00165554
0.147	0.00165801
0.134	0.00165992
0.121	0.00166129
0.108	0.00166307
0.09500000	0.00166446
0.08200000	0.00166580
0.06900000	0.00166732
0.05600000	0.00166901
0.04300000	0.00167001
0.03000000	0.00167164
0.01700000	0.00167286
0.00400000	0.00167410
-0.00900000	0.00167665
-0.02200000	0.00167672
-0.03500000	0.00167820
-0.04800000	0.00167852
-0.06100000	0.00167963
-0.07400000	0.00168049
-0.08700000	0.00168133
-0.1	0.00168237

File: FZ_003-5_ITO+SnO2+PVSK+PEAI+Spiro+Carbon (RT)  2024-06-19 10-22-18.txt
Device Id	Operator	Recipe
FZ_003-5_ITO+SnO2+PVSK+PEAI+Spiro+Carbon (RT) 	Unknown	Jacob PVSKT _ 0.08cm2 (nature recipe).IV

Sample Area	Irradiance	Pre sweep delay	Bias Direction	Max Reverse Bias	Max Forward Bias	Num Sweep Points	Dwell Time	Current Limit	PVIV 10A I-AMP	Average	Dark Current	Rshunt V-Lo	Rshunt V-Hi
0.080000	1.0000	0.5000	0	-0.1000	1.2000	101	10	130	0	1	0	-0.6000	-0.1000

Voc V	Isc A	Jsc mA/cm2	Imax A	Vmax V	Pmax mW	Fill Factor	Efficiency	R at Voc	R at Isc	Power W	RShunt ohms	Cell Temp start	Cell Temp end	Exposure	Time	Date
1.10003	0.00169172	21.1465	0.00129326	0.746253	0.965099	51.8606	12.0637	152.146	5291.365	0.00145746	NaN	NaN	NaN	8.281	10:22:18	06/19/2024

Vmeas	Imeas
1.2	-0.00069266
1.187	-0.00060326
1.174	-0.00051064
1.161	-0.00041666
1.148	-0.00032283
1.135	-0.00023003
1.122	-0.00013847
1.109	-0.00005123
1.096	0.00003631
1.083	0.00011470
1.07	0.00019736
1.057	0.00027644
1.044	0.00035232
1.031	0.00042481
1.018	0.00049400
1.005	0.00055986
0.992	0.00062234
0.979	0.00068152
0.966	0.00073728
0.953	0.00078988
0.94	0.00083933
0.927	0.00088584
0.914	0.00092959
0.901	0.00097045
0.888	0.00100883
0.875	0.00104533
0.862	0.00104257
0.849	0.00107918
0.836	0.00111303
0.823	0.00114455
0.81	0.00117386
0.797	0.00120117
0.784	0.00122661
0.771	0.00125103
0.758	0.00127369
0.745	0.00129488
0.732	0.00131529
0.719	0.00133413
0.706	0.00135249
0.693	0.00136933
0.68	0.00138598
0.667	0.00140081
0.654	0.00141580
0.641	0.00142967
0.628	0.00144271
0.615	0.00145504
0.602	0.00146712
0.589	0.00147804
0.576	0.00148831
0.563	0.00149850
0.55	0.00150851
0.537	0.00151724
0.524	0.00152616
0.511	0.00153471
0.498	0.00154246
0.485	0.00155042
0.472	0.00155774
0.459	0.00156478
0.446	0.00157165
0.433	0.00157783
0.42	0.00158390
0.407	0.00158985
0.394	0.00159555
0.381	0.00160074
0.368	0.00160582
0.355	0.00161078
0.342	0.00161569
0.329	0.00162002
0.316	0.00162421
0.303	0.00162900
0.29	0.00163312
0.277	0.00163711
0.264	0.00164057
0.251	0.00164385
0.238	0.00164753
0.225	0.00165123
0.212	0.00165413
0.199	0.00165718
0.186	0.00166004
0.173	0.00166310
0.16	0.00166592
0.147	0.00166887
0.134	0.00167056
0.121	0.00167318
0.108	0.00167536
0.09500000	0.00167789
0.08200000	0.00168020
0.06900000	0.00168208
0.05600000	0.00168415
0.04300000	0.00168563
0.03000000	0.00168789
0.01700000	0.00168978
0.00400000	0.00169136
-0.00900000	0.00169353
-0.02200000	0.00169491
-0.03500000	0.00169640
-0.04800000	0.00169802
-0.06100000	0.00169922
-0.07400000	0.00170052
-0.08700000	0.00170244
-0.1	0.00170370

File: FZ_003-6_ITO+SnO2+PVSK+PEAI+Spiro+Carbon (RT)  2024-06-19 10-24-14.txt
Device Id	Operator	Recipe
FZ_003-6_ITO+SnO2+PVSK+PEAI+Spiro+Carbon (RT) 	Unknown	Jacob PVSKT _ 0.08cm2 (nature recipe).IV

Sample Area	Irradiance	Pre sweep delay	Bias Direction	Max Reverse Bias	Max Forward Bias	Num Sweep Points	Dwell Time	Current Limit	PVIV 10A I-AMP	Average	Dark Current	Rshunt V-Lo	Rshunt V-Hi
0.080000	1.0000	0.5000	0	-0.1000	1.2000	101	10	130	0	1	0	-0.6000	-0.1000

Voc V	Isc A	Jsc mA/cm2	Imax A	Vmax V	Pmax mW	Fill Factor	Efficiency	R at Voc	R at Isc	Power W	RShunt ohms	Cell Temp start	Cell Temp end	Exposure	Time	Date
1.04537	0.00169756	21.2195	0.00131383	0.649624	0.853496	48.0956	10.6687	214.429	5053.326	0.00132811	NaN	NaN	NaN	8.500	10:24:14	06/19/2024

Vmeas	Imeas
1.2	-0.00089997
1.187	-0.00081510
1.174	-0.00072409
1.161	-0.00063263
1.148	-0.00054438
1.135	-0.00046039
1.122	-0.00038116
1.109	-0.00030602
1.096	-0.00023652
1.083	-0.00017156
1.07	-0.00011062
1.057	-0.00004863
1.044	0.00001990
1.031	0.00007453
1.018	0.00013202
1.005	0.00018892
0.992	0.00024414
0.979	0.00029840
0.966	0.00035207
0.953	0.00040538
0.94	0.00045781
0.927	0.00050960
0.914	0.00056100
0.901	0.00061201
0.888	0.00066252
0.875	0.00071259
0.862	0.00075957
0.849	0.00080659
0.836	0.00085180
0.823	0.00089603
0.81	0.00093817
0.797	0.00097889
0.784	0.00101795
0.771	0.00105018
0.758	0.00104383
0.745	0.00108740
0.732	0.00112541
0.719	0.00116004
0.706	0.00119302
0.693	0.00122388
0.68	0.00125270
0.667	0.00127979
0.654	0.00130539
0.641	0.00132860
0.628	0.00135128
0.615	0.00137305
0.602	0.00139287
0.589	0.00141079
0.576	0.00142847
0.563	0.00144447
0.55	0.00146006
0.537	0.00147390
0.524	0.00148769
0.511	0.00149966
0.498	0.00151124
0.485	0.00152296
0.472	0.00153321
0.459	0.00154302
0.446	0.00155229
0.433	0.00156079
0.42	0.00156949
0.407	0.00157779
0.394	0.00158516
0.381	0.00159224
0.368	0.00159892
0.355	0.00160460
0.342	0.00161079
0.329	0.00161763
0.316	0.00162372
0.303	0.00162813
0.29	0.00163252
0.277	0.00163731
0.264	0.00164097
0.251	0.00164539
0.238	0.00164939
0.225	0.00165301
0.212	0.00165717
0.199	0.00166060
0.186	0.00166394
0.173	0.00166712
0.16	0.00166994
0.147	0.00167254
0.134	0.00167564
0.121	0.00167783
0.108	0.00168049
0.09500000	0.00168321
0.08200000	0.00168548
0.06900000	0.00168846
0.05600000	0.00169029
0.04300000	0.00169221
0.03000000	0.00169394
0.01700000	0.00169591
0.00400000	0.00169830
-0.00900000	0.00170041
-0.02200000	0.00170208
-0.03500000	0.00170288
-0.04800000	0.00170366
-0.06100000	0.00170528
-0.07400000	0.00170716
-0.08700000	0.00170827
-0.1	0.00170954

File: FZ_004-1_ITO+SnO2+PVSK+PEAI+Spiro+Carbon (Dry Ice)  2024-06-19 10-31-15.txt
Device Id	Operator	Recipe
FZ_004-1_ITO+SnO2+PVSK+PEAI+Spiro+Carbon (Dry Ice) 	Unknown	Jacob PVSKT _ 0.08cm2 (nature recipe).IV

Sample Area	Irradiance	Pre sweep delay	Bias Direction	Max Reverse Bias	Max Forward Bias	Num Sweep Points	Dwell Time	Current Limit	PVIV 10A I-AMP	Average	Dark Current	Rshunt V-Lo	Rshunt V-Hi
0.080000	1.0000	0.5000	0	-0.1000	1.2000	101	10	130	0	1	0	-0.6000	-0.1000

Voc V	Isc A	Jsc mA/cm2	Imax A	Vmax V	Pmax mW	Fill Factor	Efficiency	R at Voc	R at Isc	Power W	RShunt ohms	Cell Temp start	Cell Temp end	Exposure	Time	Date
1.03751	0.00140130	17.5163	0.00099568	0.74451	0.74129	50.9874	9.2661	160.33	4175.710	0.00112386	NaN	NaN	NaN	8.437	10:31:15	06/19/2024

Vmeas	Imeas
1.2	-0.00121639
1.187	-0.00113407
1.174	-0.00103711
1.161	-0.00093556
1.148	-0.00082915
1.135	-0.00072157
1.122	-0.00061434
1.109	-0.00050926
1.096	-0.00040645
1.083	-0.00030658
1.07	-0.00021030
1.057	-0.00011751
1.044	-0.00003117
1.031	0.00005389
1.018	0.00012795
1.005	0.00020469
0.992	0.00027636
0.979	0.00034321
0.966	0.00040590
0.953	0.00046394
0.94	0.00051785
0.927	0.00056778
0.914	0.00061419
0.901	0.00065737
0.888	0.00069745
0.875	0.00073454
0.862	0.00076917
0.849	0.00080125
0.836	0.00083128
0.823	0.00085946
0.81	0.00088585
0.797	0.00091052
0.784	0.00093385
0.771	0.00095571
0.758	0.00097645
0.745	0.00099585
0.732	0.00101414
0.719	0.00103157
0.706	0.00104833
0.693	0.00104829
0.68	0.00106585
0.667	0.00108218
0.654	0.00109704
0.641	0.00111123
0.628	0.00112438
0.615	0.00113700
0.602	0.00114888
0.589	0.00116049
0.576	0.00117114
0.563	0.00118127
0.55	0.00119122
0.537	0.00120089
0.524	0.00121043
0.511	0.00121914
0.498	0.00122717
0.485	0.00123518
0.472	0.00124311
0.459	0.00125050
0.446	0.00125748
0.433	0.00126454
0.42	0.00127100
0.407	0.00127766
0.394	0.00128390
0.381	0.00128999
0.368	0.00129551
0.355	0.00130112
0.342	0.00130684
0.329	0.00131215
0.316	0.00131681
0.303	0.00132132
0.29	0.00132647
0.277	0.00133058
0.264	0.00133513
0.251	0.00133899
0.238	0.00134347
0.225	0.00134752
0.212	0.00135193
0.199	0.00135534
0.186	0.00135907
0.173	0.00136250
0.16	0.00136619
0.147	0.00136915
0.134	0.00137271
0.121	0.00137604
0.108	0.00137893
0.09500000	0.00138203
0.08200000	0.00138481
0.06900000	0.00138793
0.05600000	0.00139053
0.04300000	0.00139338
0.03000000	0.00139559
0.01700000	0.00139837
0.00400000	0.00140088
-0.00900000	0.00140430
-0.02200000	0.00140649
-0.03500000	0.00140878
-0.04800000	0.00141073
-0.06100000	0.00141299
-0.07400000	0.00141552
-0.08700000	0.00141694
-0.1	0.00141915

File: FZ_004-2_ITO+SnO2+PVSK+PEAI+Spiro+Carbon (Dry Ice)  2024-06-19 10-33-45.txt
Device Id	Operator	Recipe
FZ_004-2_ITO+SnO2+PVSK+PEAI+Spiro+Carbon (Dry Ice) 	Unknown	Jacob PVSKT _ 0.08cm2 (nature recipe).IV

Sample Area	Irradiance	Pre sweep delay	Bias Direction	Max Reverse Bias	Max Forward Bias	Num Sweep Points	Dwell Time	Current Limit	PVIV 10A I-AMP	Average	Dark Current	Rshunt V-Lo	Rshunt V-Hi
0.080000	1.0000	0.5000	0	-0.1000	1.2000	101	10	130	0	1	0	-0.6000	-0.1000

Voc V	Isc A	Jsc mA/cm2	Imax A	Vmax V	Pmax mW	Fill Factor	Efficiency	R at Voc	R at Isc	Power W	RShunt ohms	Cell Temp start	Cell Temp end	Exposure	Time	Date
1.03427	0.00127501	15.9376	0.00084790	0.687453	0.582891	44.2019	7.2861	225.942	2988.590	0.00094369	NaN	NaN	NaN	8.297	10:33:45	06/19/2024

Vmeas	Imeas
1.2	-0.00086229
1.187	-0.00080480
1.174	-0.00073682
1.161	-0.00066438
1.148	-0.00058988
1.135	-0.00051521
1.122	-0.00044065
1.109	-0.00036750
1.096	-0.00029595
1.083	-0.00022656
1.07	-0.00015917
1.057	-0.00009510
1.044	-0.00003289
1.031	0.00002655
1.018	0.00008326
1.005	0.00013197
0.992	0.00018433
0.979	0.00023328
0.966	0.00027930
0.953	0.00032280
0.94	0.00036370
0.927	0.00040177
0.914	0.00043816
0.901	0.00047230
0.888	0.00050465
0.875	0.00053519
0.862	0.00056405
0.849	0.00059134
0.836	0.00061739
0.823	0.00064236
0.81	0.00066608
0.797	0.00068897
0.784	0.00071078
0.771	0.00073149
0.758	0.00075136
0.745	0.00077079
0.732	0.00078939
0.719	0.00080700
0.706	0.00082458
0.693	0.00084109
0.68	0.00085715
0.667	0.00087247
0.654	0.00088728
0.641	0.00090158
0.628	0.00091541
0.615	0.00092904
0.602	0.00094205
0.589	0.00095475
0.576	0.00096694
0.563	0.00097878
0.55	0.00099006
0.537	0.00100129
0.524	0.00101212
0.511	0.00102288
0.498	0.00103343
0.485	0.00104330
0.472	0.00105018
0.459	0.00105330
0.446	0.00106394
0.433	0.00107398
0.42	0.00108284
0.407	0.00109142
0.394	0.00110093
0.381	0.00110862
0.368	0.00111665
0.355	0.00112453
0.342	0.00113259
0.329	0.00113959
0.316	0.00114701
0.303	0.00115377
0.29	0.00116050
0.277	0.00116731
0.264	0.00117355
0.251	0.00117987
0.238	0.00118655
0.225	0.00119224
0.212	0.00119809
0.199	0.00120408
0.186	0.00120963
0.173	0.00121521
0.16	0.00122030
0.147	0.00122573
0.134	0.00123051
0.121	0.00123542
0.108	0.00124039
0.09500000	0.00124495
0.08200000	0.00124986
0.06900000	0.00125417
0.05600000	0.00125788
0.04300000	0.00126276
0.03000000	0.00126725
0.01700000	0.00127089
0.00400000	0.00127493
-0.00900000	0.00128009
-0.02200000	0.00128361
-0.03500000	0.00128735
-0.04800000	0.00129072
-0.06100000	0.00129416
-0.07400000	0.00129754
-0.08700000	0.00130115
-0.1	0.00130420

File: FZ_004-3_ITO+SnO2+PVSK+PEAI+Spiro+Carbon (Dry Ice)  2024-06-19 10-36-45.txt
Device Id	Operator	Recipe
FZ_004-3_ITO+SnO2+PVSK+PEAI+Spiro+Carbon (Dry Ice) 	Unknown	Jacob PVSKT _ 0.08cm2 (nature recipe).IV

Sample Area	Irradiance	Pre sweep delay	Bias Direction	Max Reverse Bias	Max Forward Bias	Num Sweep Points	Dwell Time	Current Limit	PVIV 10A I-AMP	Average	Dark Current	Rshunt V-Lo	Rshunt V-Hi
0.080000	1.0000	0.5000	0	-0.1000	1.2000	101	10	130	0	1	0	-0.6000	-0.1000

Voc V	Isc A	Jsc mA/cm2	Imax A	Vmax V	Pmax mW	Fill Factor	Efficiency	R at Voc	R at Isc	Power W	RShunt ohms	Cell Temp start	Cell Temp end	Exposure	Time	Date
1.03098	0.00141102	17.6378	0.00101982	0.740013	0.75468	51.8777	9.4335	163.578	5642.334	0.00113816	NaN	NaN	NaN	8.375	10:36:45	06/19/2024

Vmeas	Imeas
1.2	-0.00115376
1.187	-0.00108432
1.174	-0.00100053
1.161	-0.00091361
1.148	-0.00081894
1.135	-0.00072147
1.122	-0.00062326
1.109	-0.00052598
1.096	-0.00043026
1.083	-0.00033649
1.07	-0.00024522
1.057	-0.00015657
1.044	-0.00007238
1.031	0.00001009
1.018	0.00008918
1.005	0.00015789
0.992	0.00023094
0.979	0.00029962
0.966	0.00036465
0.953	0.00042556
0.94	0.00048294
0.927	0.00053688
0.914	0.00058729
0.901	0.00063442
0.888	0.00067881
0.875	0.00072011
0.862	0.00075897
0.849	0.00079539
0.836	0.00082952
0.823	0.00086133
0.81	0.00089125
0.797	0.00091931
0.784	0.00094550
0.771	0.00097068
0.758	0.00099408
0.745	0.00101604
0.732	0.00103655
0.719	0.00105018
0.706	0.00105367
0.693	0.00107406
0.68	0.00109327
0.667	0.00111068
0.654	0.00112725
0.641	0.00114204
0.628	0.00115603
0.615	0.00116983
0.602	0.00118248
0.589	0.00119463
0.576	0.00120592
0.563	0.00121657
0.55	0.00122644
0.537	0.00123630
0.524	0.00124488
0.511	0.00125372
0.498	0.00126227
0.485	0.00127015
0.472	0.00127771
0.459	0.00128490
0.446	0.00129177
0.433	0.00129812
0.42	0.00130440
0.407	0.00131024
0.394	0.00131593
0.381	0.00132135
0.368	0.00132655
0.355	0.00133206
0.342	0.00133668
0.329	0.00134098
0.316	0.00134560
0.303	0.00134994
0.29	0.00135377
0.277	0.00135738
0.264	0.00136098
0.251	0.00136470
0.238	0.00136807
0.225	0.00137121
0.212	0.00137463
0.199	0.00137765
0.186	0.00138025
0.173	0.00138305
0.16	0.00138602
0.147	0.00138836
0.134	0.00139122
0.121	0.00139332
0.108	0.00139537
0.09500000	0.00139760
0.08200000	0.00139960
0.06900000	0.00140196
0.05600000	0.00140393
0.04300000	0.00140609
0.03000000	0.00140730
0.01700000	0.00140933
0.00400000	0.00141094
-0.00900000	0.00141314
-0.02200000	0.00141454
-0.03500000	0.00141591
-0.04800000	0.00141751
-0.06100000	0.00141875
-0.07400000	0.00141987
-0.08700000	0.00142155
-0.1	0.00142311

File: FZ_004-4_ITO+SnO2+PVSK+PEAI+Spiro+Carbon (Dry Ice)  2024-06-19 10-38-28.txt
Device Id	Operator	Recipe
FZ_004-4_ITO+SnO2+PVSK+PEAI+Spiro+Carbon (Dry Ice) 	Unknown	Jacob PVSKT _ 0.08cm2 (nature recipe).IV

Sample Area	Irradiance	Pre sweep delay	Bias Direction	Max Reverse Bias	Max Forward Bias	Num Sweep Points	Dwell Time	Current Limit	PVIV 10A I-AMP	Average	Dark Current	Rshunt V-Lo	Rshunt V-Hi
0.080000	1.0000	0.5000	0	-0.1000	1.2000	101	10	130	0	1	0	-0.6000	-0.1000

Voc V	Isc A	Jsc mA/cm2	Imax A	Vmax V	Pmax mW	Fill Factor	Efficiency	R at Voc	R at Isc	Power W	RShunt ohms	Cell Temp start	Cell Temp end	Exposure	Time	Date
1.03944	0.00149852	18.7316	0.00120285	0.739661	0.889699	57.1187	11.1212	122.822	9391.406	0.00128569	NaN	NaN	NaN	8.375	10:38:28	06/19/2024

Vmeas	Imeas
1.2	-0.00148039
1.187	-0.00137792
1.174	-0.00126325
1.161	-0.00114108
1.148	-0.00101436
1.135	-0.00088589
1.122	-0.00075846
1.109	-0.00062974
1.096	-0.00050211
1.083	-0.00037683
1.07	-0.00025481
1.057	-0.00013657
1.044	-0.00002618
1.031	0.00008280
1.018	0.00017517
1.005	0.00027412
0.992	0.00036670
0.979	0.00045303
0.966	0.00053369
0.953	0.00060844
0.94	0.00067702
0.927	0.00073991
0.914	0.00079746
0.901	0.00085000
0.888	0.00089791
0.875	0.00094143
0.862	0.00098148
0.849	0.00101771
0.836	0.00104883
0.823	0.00103506
0.81	0.00107124
0.797	0.00110224
0.784	0.00112972
0.771	0.00115417
0.758	0.00117732
0.745	0.00119689
0.732	0.00121646
0.719	0.00123419
0.706	0.00124755
0.693	0.00126369
0.68	0.00127853
0.667	0.00129181
0.654	0.00130382
0.641	0.00131549
0.628	0.00132587
0.615	0.00133553
0.602	0.00134498
0.589	0.00135383
0.576	0.00136211
0.563	0.00137007
0.55	0.00137724
0.537	0.00138413
0.524	0.00139012
0.511	0.00139681
0.498	0.00140250
0.485	0.00140842
0.472	0.00141362
0.459	0.00141796
0.446	0.00142288
0.433	0.00142746
0.42	0.00143210
0.407	0.00143605
0.394	0.00143982
0.381	0.00144317
0.368	0.00144624
0.355	0.00144972
0.342	0.00145284
0.329	0.00145551
0.316	0.00145840
0.303	0.00146127
0.29	0.00146392
0.277	0.00146568
0.264	0.00146790
0.251	0.00147099
0.238	0.00147332
0.225	0.00147453
0.212	0.00147617
0.199	0.00147858
0.186	0.00148035
0.173	0.00148235
0.16	0.00148407
0.147	0.00148460
0.134	0.00148681
0.121	0.00148824
0.108	0.00148966
0.09500000	0.00149055
0.08200000	0.00149187
0.06900000	0.00149319
0.05600000	0.00149437
0.04300000	0.00149536
0.03000000	0.00149642
0.01700000	0.00149739
0.00400000	0.00149816
-0.00900000	0.00150001
-0.02200000	0.00150091
-0.03500000	0.00150122
-0.04800000	0.00150180
-0.06100000	0.00150296
-0.07400000	0.00150402
-0.08700000	0.00150469
-0.1	0.00150558

File: FZ_004-5_ITO+SnO2+PVSK+PEAI+Spiro+Carbon (Dry Ice)  2024-06-19 10-39-56.txt
Device Id	Operator	Recipe
FZ_004-5_ITO+SnO2+PVSK+PEAI+Spiro+Carbon (Dry Ice) 	Unknown	Jacob PVSKT _ 0.08cm2 (nature recipe).IV

Sample Area	Irradiance	Pre sweep delay	Bias Direction	Max Reverse Bias	Max Forward Bias	Num Sweep Points	Dwell Time	Current Limit	PVIV 10A I-AMP	Average	Dark Current	Rshunt V-Lo	Rshunt V-Hi
0.080000	1.0000	0.5000	0	-0.1000	1.2000	101	10	130	0	1	0	-0.6000	-0.1000

Voc V	Isc A	Jsc mA/cm2	Imax A	Vmax V	Pmax mW	Fill Factor	Efficiency	R at Voc	R at Isc	Power W	RShunt ohms	Cell Temp start	Cell Temp end	Exposure	Time	Date
1.05459	0.00158129	19.7662	0.00122345	0.691459	0.845968	50.7291	10.5746	157.212	7120.236	0.00130517	NaN	NaN	NaN	8.562	10:39:56	06/19/2024

Vmeas	Imeas
1.2	-0.00112194
1.187	-0.00100503
1.174	-0.00090599
1.161	-0.00079424
1.148	-0.00068499
1.135	-0.00057845
1.122	-0.00047422
1.109	-0.00037307
1.096	-0.00027453
1.083	-0.00017871
1.07	-0.00008740
1.057	-0.00000122
1.044	0.00007853
1.031	0.00015209
1.018	0.00023128
1.005	0.00030641
0.992	0.00037766
0.979	0.00044512
0.966	0.00050882
0.953	0.00056857
0.94	0.00062461
0.927	0.00067700
0.914	0.00072623
0.901	0.00077246
0.888	0.00081569
0.875	0.00085665
0.862	0.00089526
0.849	0.00093022
0.836	0.00096500
0.823	0.00099793
0.81	0.00102881
0.797	0.00105018
0.784	0.00102401
0.771	0.00106380
0.758	0.00109617
0.745	0.00112530
0.732	0.00115230
0.719	0.00117738
0.706	0.00120103
0.693	0.00122302
0.68	0.00124368
0.667	0.00126309
0.654	0.00128120
0.641	0.00129773
0.628	0.00131478
0.615	0.00133045
0.602	0.00134488
0.589	0.00135899
0.576	0.00137232
0.563	0.00138444
0.55	0.00139603
0.537	0.00140725
0.524	0.00141819
0.511	0.00142853
0.498	0.00143779
0.485	0.00144695
0.472	0.00145526
0.459	0.00146365
0.446	0.00147038
0.433	0.00147798
0.42	0.00148512
0.407	0.00149131
0.394	0.00149793
0.381	0.00150345
0.368	0.00150885
0.355	0.00151329
0.342	0.00151793
0.329	0.00152259
0.316	0.00152691
0.303	0.00153111
0.29	0.00153542
0.277	0.00153877
0.264	0.00154191
0.251	0.00154534
0.238	0.00154819
0.225	0.00155109
0.212	0.00155368
0.199	0.00155644
0.186	0.00155887
0.173	0.00156095
0.16	0.00156269
0.147	0.00156491
0.134	0.00156701
0.121	0.00156844
0.108	0.00157023
0.09500000	0.00157189
0.08200000	0.00157326
0.06900000	0.00157477
0.05600000	0.00157615
0.04300000	0.00157798
0.03000000	0.00157874
0.01700000	0.00158093
0.00400000	0.00158062
-0.00900000	0.00158227
-0.02200000	0.00158328
-0.03500000	0.00158472
-0.04800000	0.00158545
-0.06100000	0.00158584
-0.07400000	0.00158727
-0.08700000	0.00158819
-0.1	0.00158882

File: FZ_004-5_ITO+SnO2+PVSK+PEAI+Spiro+Carbon (Dry Ice)  2024-06-19 10-40-07.txt
Device Id	Operator	Recipe
FZ_004-5_ITO+SnO2+PVSK+PEAI+Spiro+Carbon (Dry Ice) 	Unknown	Jacob PVSKT _ 0.08cm2 (nature recipe).IV

Sample Area	Irradiance	Pre sweep delay	Bias Direction	Max Reverse Bias	Max Forward Bias	Num Sweep Points	Dwell Time	Current Limit	PVIV 10A I-AMP	Average	Dark Current	Rshunt V-Lo	Rshunt V-Hi
0.080000	1.0000	0.5000	0	-0.1000	1.2000	101	10	130	0	1	0	-0.6000	-0.1000

Voc V	Isc A	Jsc mA/cm2	Imax A	Vmax V	Pmax mW	Fill Factor	Efficiency	R at Voc	R at Isc	Power W	RShunt ohms	Cell Temp start	Cell Temp end	Exposure	Time	Date
1.05404	0.00157687	19.7108	0.00121569	0.693944	0.843618	50.7566	10.5452	151.274	6680.396	0.00130237	NaN	NaN	NaN	8.562	10:40:07	06/19/2024

Vmeas	Imeas
1.2	-0.00114855
1.187	-0.00103491
1.174	-0.00093947
1.161	-0.00082775
1.148	-0.00071716
1.135	-0.00060783
1.122	-0.00049963
1.109	-0.00039370
1.096	-0.00029032
1.083	-0.00018974
1.07	-0.00009349
1.057	-0.00000311
1.044	0.00007960
1.031	0.00015510
1.018	0.00023659
1.005	0.00031330
0.992	0.00038576
0.979	0.00045402
0.966	0.00051851
0.953	0.00057846
0.94	0.00063443
0.927	0.00068675
0.914	0.00073569
0.901	0.00078096
0.888	0.00082378
0.875	0.00086396
0.862	0.00090147
0.849	0.00093640
0.836	0.00097014
0.823	0.00100216
0.81	0.00103217
0.797	0.00105018
0.784	0.00102487
0.771	0.00106408
0.758	0.00109581
0.745	0.00112440
0.732	0.00115043
0.719	0.00117506
0.706	0.00119792
0.693	0.00121942
0.68	0.00123982
0.667	0.00125884
0.654	0.00127652
0.641	0.00129262
0.628	0.00130911
0.615	0.00132420
0.602	0.00133847
0.589	0.00135248
0.576	0.00136525
0.563	0.00137766
0.55	0.00138941
0.537	0.00140066
0.524	0.00141082
0.511	0.00142097
0.498	0.00143037
0.485	0.00143968
0.472	0.00144825
0.459	0.00145602
0.446	0.00146393
0.433	0.00147094
0.42	0.00147763
0.407	0.00148437
0.394	0.00148993
0.381	0.00149579
0.368	0.00150136
0.355	0.00150607
0.342	0.00151106
0.329	0.00151601
0.316	0.00152022
0.303	0.00152448
0.29	0.00152778
0.277	0.00153137
0.264	0.00153517
0.251	0.00153836
0.238	0.00154175
0.225	0.00154443
0.212	0.00154688
0.199	0.00154971
0.186	0.00155246
0.173	0.00155485
0.16	0.00155708
0.147	0.00155937
0.134	0.00156165
0.121	0.00156318
0.108	0.00156438
0.09500000	0.00156642
0.08200000	0.00156850
0.06900000	0.00156996
0.05600000	0.00157080
0.04300000	0.00157241
0.03000000	0.00157411
0.01700000	0.00157555
0.00400000	0.00157666
-0.00900000	0.00157960
-0.02200000	0.00157926
-0.03500000	0.00158006
-0.04800000	0.00158136
-0.06100000	0.00158334
-0.07400000	0.00158330
-0.08700000	0.00158408
-0.1	0.00158462

File: FZ_004-6_ITO+SnO2+PVSK+PEAI+Spiro+Carbon (Dry Ice)  2024-06-19 10-42-23.txt
Device Id	Operator	Recipe
FZ_004-6_ITO+SnO2+PVSK+PEAI+Spiro+Carbon (Dry Ice) 	Unknown	Jacob PVSKT _ 0.08cm2 (nature recipe).IV

Sample Area	Irradiance	Pre sweep delay	Bias Direction	Max Reverse Bias	Max Forward Bias	Num Sweep Points	Dwell Time	Current Limit	PVIV 10A I-AMP	Average	Dark Current	Rshunt V-Lo	Rshunt V-Hi
0.080000	1.0000	0.5000	0	-0.1000	1.2000	101	10	130	0	1	0	-0.6000	-0.1000

Voc V	Isc A	Jsc mA/cm2	Imax A	Vmax V	Pmax mW	Fill Factor	Efficiency	R at Voc	R at Isc	Power W	RShunt ohms	Cell Temp start	Cell Temp end	Exposure	Time	Date
1.04497	0.00149667	18.7084	0.00119766	0.74616	0.893648	57.1392	11.1706	122.081	8632.368	0.00128955	NaN	NaN	NaN	8.359	10:42:23	06/19/2024

Vmeas	Imeas
1.2	-0.00146512
1.187	-0.00135470
1.174	-0.00123329
1.161	-0.00110489
1.148	-0.00097617
1.135	-0.00084484
1.122	-0.00071224
1.109	-0.00058112
1.096	-0.00045256
1.083	-0.00032754
1.07	-0.00020647
1.057	-0.00009204
1.044	0.00001961
1.031	0.00011675
1.018	0.00021893
1.005	0.00031404
0.992	0.00040335
0.979	0.00048673
0.966	0.00056430
0.953	0.00063581
0.94	0.00070155
0.927	0.00076181
0.914	0.00081700
0.901	0.00086737
0.888	0.00091319
0.875	0.00095500
0.862	0.00099279
0.849	0.00102776
0.836	0.00105018
0.823	0.00104877
0.81	0.00108212
0.797	0.00111139
0.784	0.00113747
0.771	0.00116074
0.758	0.00118250
0.745	0.00120197
0.732	0.00122002
0.719	0.00123667
0.706	0.00125246
0.693	0.00126649
0.68	0.00128014
0.667	0.00129224
0.654	0.00130360
0.641	0.00131438
0.628	0.00132471
0.615	0.00133362
0.602	0.00134274
0.589	0.00135127
0.576	0.00135927
0.563	0.00136653
0.55	0.00137346
0.537	0.00137963
0.524	0.00138664
0.511	0.00139248
0.498	0.00139830
0.485	0.00140375
0.472	0.00140900
0.459	0.00141396
0.446	0.00141873
0.433	0.00142208
0.42	0.00142663
0.407	0.00143114
0.394	0.00143516
0.381	0.00143810
0.368	0.00144171
0.355	0.00144533
0.342	0.00144837
0.329	0.00145053
0.316	0.00145414
0.303	0.00145658
0.29	0.00145945
0.277	0.00146200
0.264	0.00146445
0.251	0.00146652
0.238	0.00146869
0.225	0.00147026
0.212	0.00147241
0.199	0.00147446
0.186	0.00147612
0.173	0.00147830
0.16	0.00148063
0.147	0.00148219
0.134	0.00148385
0.121	0.00148506
0.108	0.00148600
0.09500000	0.00148811
0.08200000	0.00148934
0.06900000	0.00149065
0.05600000	0.00149168
0.04300000	0.00149362
0.03000000	0.00149437
0.01700000	0.00149600
0.00400000	0.00149695
-0.00900000	0.00149760
-0.02200000	0.00149878
-0.03500000	0.00149938
-0.04800000	0.00150098
-0.06100000	0.00150156
-0.07400000	0.00150289
-0.08700000	0.00150363
-0.1	0.00150471