Folder: YanLab/Data/IV_data/2024-05-02 (part 3)

File: A5-5_ITO+SnO2+PVSK+C6Br+Spiro+Carbon (Air Quench)  2024-04-18 20-16-15 2024-05-06 20-00-18.txt
Device Id	Operator	Recipe
A5-5_ITO+SnO2+PVSK+C6Br+Spiro+Carbon (Air Quench)  2024-04-18 20-16-15	Unknown	Jacob PVSKT _ 0.077cm^2 (nature recipe).IV

Sample Area	Irradiance	Pre sweep delay	Bias Direction	Max Reverse Bias	Max Forward Bias	Num Sweep Points	Dwell Time	Current Limit	PVIV 10A I-AMP	Average	Dark Current	Rshunt V-Lo	Rshunt V-Hi
0.077170	1.0000	0.5000	0	-0.1000	1.2000	101	10	130	0	1	0	-0.6000	-0.1000

Voc V	Isc A	Jsc mA/cm2	Imax A	Vmax V	Pmax mW	Fill Factor	Efficiency	R at Voc	R at Isc	Power W	RShunt ohms	Cell Temp start	Cell Temp end	Exposure	Time	Date
1.01296	0.00091004	11.7927	0.00068006	0.588564	0.400261	43.4201	5.1867	396.009	11032.232	0.00066310	NaN	NaN	NaN	8.359	20:00:18	05/06/2024

Vmeas	Imeas
1.2	-0.00074637
1.187	-0.00068767
1.174	-0.00062386
1.161	-0.00055847
1.148	-0.00049353
1.135	-0.00043047
1.122	-0.00036974
1.109	-0.00031204
1.096	-0.00025765
1.083	-0.00020667
1.07	-0.00015912
1.057	-0.00011470
1.044	-0.00007159
1.031	-0.00003486
1.018	0.00000023
1.005	0.00003167
0.992	0.00006331
0.979	0.00009296
0.966	0.00011443
0.953	0.00014326
0.94	0.00016953
0.927	0.00019418
0.914	0.00021761
0.901	0.00023998
0.888	0.00026174
0.875	0.00028296
0.862	0.00030362
0.849	0.00032401
0.836	0.00034402
0.823	0.00036375
0.81	0.00038301
0.797	0.00040229
0.784	0.00042137
0.771	0.00044014
0.758	0.00045892
0.745	0.00047748
0.732	0.00049581
0.719	0.00051363
0.706	0.00052965
0.693	0.00054853
0.68	0.00056616
0.667	0.00058340
0.654	0.00060032
0.641	0.00061692
0.628	0.00063192
0.615	0.00064842
0.602	0.00066429
0.589	0.00067970
0.576	0.00069436
0.563	0.00070877
0.55	0.00072296
0.537	0.00073645
0.524	0.00074864
0.511	0.00076127
0.498	0.00077333
0.485	0.00078438
0.472	0.00079490
0.459	0.00080501
0.446	0.00081397
0.433	0.00082244
0.42	0.00083052
0.407	0.00083775
0.394	0.00084417
0.381	0.00085035
0.368	0.00085595
0.355	0.00086058
0.342	0.00086497
0.329	0.00086893
0.316	0.00087287
0.303	0.00087592
0.29	0.00087856
0.277	0.00088165
0.264	0.00088438
0.251	0.00088688
0.238	0.00088892
0.225	0.00089055
0.212	0.00089257
0.199	0.00089366
0.186	0.00089531
0.173	0.00089649
0.16	0.00089833
0.147	0.00089912
0.134	0.00089996
0.121	0.00090121
0.108	0.00090239
0.09500000	0.00090329
0.08200000	0.00090459
0.06900000	0.00090570
0.05600000	0.00090658
0.04300000	0.00090733
0.03000000	0.00090823
0.01700000	0.00090909
0.00400000	0.00091018
-0.00900000	0.00091094
-0.02200000	0.00091141
-0.03500000	0.00091221
-0.04800000	0.00091270
-0.06100000	0.00091371
-0.07400000	0.00091429
-0.08700000	0.00091490
-0.1	0.00091592

File: A6-2_ITO+SnO2+PVSK+C6Br+Spiro+Carbon (Air Quench)  2024-04-18 20-16-15 2024-05-06 20-02-29.txt
Device Id	Operator	Recipe
A6-2_ITO+SnO2+PVSK+C6Br+Spiro+Carbon (Air Quench)  2024-04-18 20-16-15	Unknown	Jacob PVSKT _ 0.077cm^2 (nature recipe).IV

Sample Area	Irradiance	Pre sweep delay	Bias Direction	Max Reverse Bias	Max Forward Bias	Num Sweep Points	Dwell Time	Current Limit	PVIV 10A I-AMP	Average	Dark Current	Rshunt V-Lo	Rshunt V-Hi
0.077170	1.0000	0.5000	0	-0.1000	1.2000	101	10	130	0	1	0	-0.6000	-0.1000

Voc V	Isc A	Jsc mA/cm2	Imax A	Vmax V	Pmax mW	Fill Factor	Efficiency	R at Voc	R at Isc	Power W	RShunt ohms	Cell Temp start	Cell Temp end	Exposure	Time	Date
1.01182	0.00146923	19.0389	0.00090417	0.517462	0.467875	31.4728	6.0629	2366.51	2774.016	0.00080927	NaN	NaN	NaN	8.281	20:02:29	05/06/2024

Vmeas	Imeas
1.2	-0.00007731
1.187	-0.00007255
1.174	-0.00006714
1.161	-0.00006192
1.148	-0.00005652
1.135	-0.00005127
1.122	-0.00004618
1.109	-0.00004083
1.096	-0.00003535
1.083	-0.00003004
1.07	-0.00002460
1.057	-0.00001915
1.044	-0.00001376
1.031	-0.00000823
1.018	-0.00000279
1.005	0.00000270
0.992	0.00000817
0.979	0.00001384
0.966	0.00001935
0.953	0.00002462
0.94	0.00003009
0.927	0.00003624
0.914	0.00004175
0.901	0.00004741
0.888	0.00005313
0.875	0.00005923
0.862	0.00006520
0.849	0.00007119
0.836	0.00007665
0.823	0.00008218
0.81	0.00008874
0.797	0.00009550
0.784	0.00010181
0.771	0.00023093
0.758	0.00034560
0.745	0.00032454
0.732	0.00034958
0.719	0.00031063
0.706	0.00026868
0.693	0.00028300
0.68	0.00029641
0.667	0.00041498
0.654	0.00047055
0.641	0.00055295
0.628	0.00059543
0.615	0.00063017
0.602	0.00065436
0.589	0.00075880
0.576	0.00078079
0.563	0.00081080
0.55	0.00083731
0.537	0.00086351
0.524	0.00088789
0.511	0.00091686
0.498	0.00094201
0.485	0.00096250
0.472	0.00097562
0.459	0.00100738
0.446	0.00102834
0.433	0.00107341
0.42	0.00109359
0.407	0.00110662
0.394	0.00113780
0.381	0.00115878
0.368	0.00118020
0.355	0.00119218
0.342	0.00121357
0.329	0.00123317
0.316	0.00125345
0.303	0.00126524
0.29	0.00128385
0.277	0.00129948
0.264	0.00130798
0.251	0.00132948
0.238	0.00133705
0.225	0.00135023
0.212	0.00137192
0.199	0.00138025
0.186	0.00138671
0.173	0.00139502
0.16	0.00140641
0.147	0.00141701
0.134	0.00142241
0.121	0.00142872
0.108	0.00143382
0.09500000	0.00143975
0.08200000	0.00144689
0.06900000	0.00144961
0.05600000	0.00145747
0.04300000	0.00146147
0.03000000	0.00146420
0.01700000	0.00146850
0.00400000	0.00147139
-0.00900000	0.00147408
-0.02200000	0.00147777
-0.03500000	0.00148150
-0.04800000	0.00148435
-0.06100000	0.00148846
-0.07400000	0.00149143
-0.08700000	0.00149358
-0.1	0.00149534

File: A6-3_ITO+SnO2+PVSK+C6Br+Spiro+Carbon (Air Quench)  2024-04-18 20-16-15 2024-05-06 20-03-13.txt
Device Id	Operator	Recipe
A6-3_ITO+SnO2+PVSK+C6Br+Spiro+Carbon (Air Quench)  2024-04-18 20-16-15	Unknown	Jacob PVSKT _ 0.077cm^2 (nature recipe).IV

Sample Area	Irradiance	Pre sweep delay	Bias Direction	Max Reverse Bias	Max Forward Bias	Num Sweep Points	Dwell Time	Current Limit	PVIV 10A I-AMP	Average	Dark Current	Rshunt V-Lo	Rshunt V-Hi
0.077170	1.0000	0.5000	0	-0.1000	1.2000	101	10	130	0	1	0	-0.6000	-0.1000

Voc V	Isc A	Jsc mA/cm2	Imax A	Vmax V	Pmax mW	Fill Factor	Efficiency	R at Voc	R at Isc	Power W	RShunt ohms	Cell Temp start	Cell Temp end	Exposure	Time	Date
0.991634	0.00159169	20.6258	0.00096680	0.483643	0.467588	29.6246	6.0592	5259.85	2075.902	0.00079787	NaN	NaN	NaN	8.297	20:03:13	05/06/2024

Vmeas	Imeas
1.2	-0.00003886
1.187	-0.00003614
1.174	-0.00003397
1.161	-0.00003151
1.148	-0.00002907
1.135	-0.00002666
1.122	-0.00002426
1.109	-0.00002195
1.096	-0.00001948
1.083	-0.00001720
1.07	-0.00001472
1.057	-0.00001236
1.044	-0.00001003
1.031	-0.00000753
1.018	-0.00000508
1.005	-0.00000275
0.992	-0.00000036
0.979	0.00000211
0.966	0.00000478
0.953	0.00000730
0.94	0.00001008
0.927	0.00001236
0.914	0.00001482
0.901	0.00001733
0.888	0.00002430
0.875	0.00002838
0.862	0.00003230
0.849	0.00003653
0.836	0.00004077
0.823	0.00004539
0.81	0.00005085
0.797	0.00006157
0.784	0.00006416
0.771	0.00007262
0.758	0.00009494
0.745	0.00011440
0.732	0.00016102
0.719	0.00017721
0.706	0.00025692
0.693	0.00028117
0.68	0.00029848
0.667	0.00029346
0.654	0.00032794
0.641	0.00036035
0.628	0.00039194
0.615	0.00045539
0.602	0.00050275
0.589	0.00056857
0.576	0.00063682
0.563	0.00069525
0.55	0.00078261
0.537	0.00083123
0.524	0.00085389
0.511	0.00089379
0.498	0.00093885
0.485	0.00096321
0.472	0.00099351
0.459	0.00101126
0.446	0.00102537
0.433	0.00104635
0.42	0.00108403
0.407	0.00110114
0.394	0.00113360
0.381	0.00115399
0.368	0.00116921
0.355	0.00121307
0.342	0.00123950
0.329	0.00125201
0.316	0.00128619
0.303	0.00130799
0.29	0.00132391
0.277	0.00135481
0.264	0.00138393
0.251	0.00139089
0.238	0.00139338
0.225	0.00142219
0.212	0.00143927
0.199	0.00145822
0.186	0.00146158
0.173	0.00148489
0.16	0.00149346
0.147	0.00149664
0.134	0.00151256
0.121	0.00152717
0.108	0.00153033
0.09500000	0.00154459
0.08200000	0.00155324
0.06900000	0.00156262
0.05600000	0.00156988
0.04300000	0.00158066
0.03000000	0.00158596
0.01700000	0.00159114
0.00400000	0.00159724
-0.00900000	0.00160480
-0.02200000	0.00160832
-0.03500000	0.00161133
-0.04800000	0.00161523
-0.06100000	0.00161852
-0.07400000	0.00162154
-0.08700000	0.00162452
-0.1	0.00162690

File: A6-4_ITO+SnO2+PVSK+C6Br+Spiro+Carbon (Air Quench)  2024-04-18 20-16-15 2024-05-06 20-04-00.txt
Device Id	Operator	Recipe
A6-4_ITO+SnO2+PVSK+C6Br+Spiro+Carbon (Air Quench)  2024-04-18 20-16-15	Unknown	Jacob PVSKT _ 0.077cm^2 (nature recipe).IV

Sample Area	Irradiance	Pre sweep delay	Bias Direction	Max Reverse Bias	Max Forward Bias	Num Sweep Points	Dwell Time	Current Limit	PVIV 10A I-AMP	Average	Dark Current	Rshunt V-Lo	Rshunt V-Hi
0.077170	1.0000	0.5000	0	-0.1000	1.2000	101	10	130	0	1	0	-0.6000	-0.1000

Voc V	Isc A	Jsc mA/cm2	Imax A	Vmax V	Pmax mW	Fill Factor	Efficiency	R at Voc	R at Isc	Power W	RShunt ohms	Cell Temp start	Cell Temp end	Exposure	Time	Date
1.02578	0.00126510	16.3937	0.00090306	0.466244	0.421044	32.4450	5.4561	2853.52	4391.535	0.00073804	NaN	NaN	NaN	8.297	20:04:00	05/06/2024

Vmeas	Imeas
1.2	-0.00006960
1.187	-0.00006475
1.174	-0.00005965
1.161	-0.00005480
1.148	-0.00004852
1.135	-0.00004203
1.122	-0.00003519
1.109	-0.00002968
1.096	-0.00002418
1.083	-0.00001910
1.07	-0.00001335
1.057	-0.00000760
1.044	-0.00000271
1.031	0.00000187
1.018	0.00000585
1.005	0.00000702
0.992	0.00001071
0.979	0.00001426
0.966	0.00001791
0.953	0.00002158
0.94	0.00002909
0.927	0.00003294
0.914	0.00004968
0.901	0.00005635
0.888	0.00006712
0.875	0.00007588
0.862	0.00008197
0.849	0.00011074
0.836	0.00012620
0.823	0.00016886
0.81	0.00019469
0.797	0.00021750
0.784	0.00024984
0.771	0.00026861
0.758	0.00029451
0.745	0.00032104
0.732	0.00037361
0.719	0.00040653
0.706	0.00043951
0.693	0.00045683
0.68	0.00046832
0.667	0.00048239
0.654	0.00049539
0.641	0.00053333
0.628	0.00055072
0.615	0.00056978
0.602	0.00060596
0.589	0.00064139
0.576	0.00068197
0.563	0.00071180
0.55	0.00073882
0.537	0.00074437
0.524	0.00076925
0.511	0.00080158
0.498	0.00084589
0.485	0.00088244
0.472	0.00089343
0.459	0.00090807
0.446	0.00093273
0.433	0.00094711
0.42	0.00098993
0.407	0.00100220
0.394	0.00101513
0.381	0.00103333
0.368	0.00105013
0.355	0.00105224
0.342	0.00107876
0.329	0.00109431
0.316	0.00110647
0.303	0.00112284
0.29	0.00113096
0.277	0.00114882
0.264	0.00117656
0.251	0.00118549
0.238	0.00119132
0.225	0.00120026
0.212	0.00120662
0.199	0.00120932
0.186	0.00122001
0.173	0.00122578
0.16	0.00123086
0.147	0.00123523
0.134	0.00123927
0.121	0.00124293
0.108	0.00124640
0.09500000	0.00124931
0.08200000	0.00125282
0.06900000	0.00125549
0.05600000	0.00125986
0.04300000	0.00126189
0.03000000	0.00126372
0.01700000	0.00126589
0.00400000	0.00126673
-0.00900000	0.00126900
-0.02200000	0.00127019
-0.03500000	0.00127239
-0.04800000	0.00127362
-0.06100000	0.00127439
-0.07400000	0.00127553
-0.08700000	0.00127709
-0.1	0.00127795

File: A6-5_ITO+SnO2+PVSK+C6Br+Spiro+Carbon (Air Quench)  2024-04-18 20-16-15 2024-05-06 20-04-33.txt
Device Id	Operator	Recipe
A6-5_ITO+SnO2+PVSK+C6Br+Spiro+Carbon (Air Quench)  2024-04-18 20-16-15	Unknown	Jacob PVSKT _ 0.077cm^2 (nature recipe).IV

Sample Area	Irradiance	Pre sweep delay	Bias Direction	Max Reverse Bias	Max Forward Bias	Num Sweep Points	Dwell Time	Current Limit	PVIV 10A I-AMP	Average	Dark Current	Rshunt V-Lo	Rshunt V-Hi
0.077170	1.0000	0.5000	0	-0.1000	1.2000	101	10	130	0	1	0	-0.6000	-0.1000

Voc V	Isc A	Jsc mA/cm2	Imax A	Vmax V	Pmax mW	Fill Factor	Efficiency	R at Voc	R at Isc	Power W	RShunt ohms	Cell Temp start	Cell Temp end	Exposure	Time	Date
1.04355	0.00162590	21.0691	0.00116560	0.464533	0.54146	31.9125	7.0165	2250.06	3708.013	0.00096128	NaN	NaN	NaN	8.297	20:04:33	05/06/2024

Vmeas	Imeas
1.2	-0.00007041
1.187	-0.00006386
1.174	-0.00005753
1.161	-0.00004950
1.148	-0.00004310
1.135	-0.00003779
1.122	-0.00003254
1.109	-0.00002733
1.096	-0.00002212
1.083	-0.00001691
1.07	-0.00001168
1.057	-0.00000638
1.044	-0.00000129
1.031	0.00000342
1.018	0.00000832
1.005	0.00001328
0.992	0.00001818
0.979	0.00002362
0.966	0.00003217
0.953	0.00004259
0.94	0.00005375
0.927	0.00006507
0.914	0.00007504
0.901	0.00008331
0.888	0.00010944
0.875	0.00012627
0.862	0.00015259
0.849	0.00017488
0.836	0.00019954
0.823	0.00021842
0.81	0.00023647
0.797	0.00026816
0.784	0.00030786
0.771	0.00035318
0.758	0.00037864
0.745	0.00040530
0.732	0.00044357
0.719	0.00047117
0.706	0.00049609
0.693	0.00056718
0.68	0.00062512
0.667	0.00065183
0.654	0.00068127
0.641	0.00071655
0.628	0.00075504
0.615	0.00078938
0.602	0.00083726
0.589	0.00087044
0.576	0.00091421
0.563	0.00094355
0.55	0.00096877
0.537	0.00098127
0.524	0.00104670
0.511	0.00103437
0.498	0.00108508
0.485	0.00112233
0.472	0.00114981
0.459	0.00117648
0.446	0.00121681
0.433	0.00123079
0.42	0.00126960
0.407	0.00130461
0.394	0.00132331
0.381	0.00130941
0.368	0.00137661
0.355	0.00139611
0.342	0.00141465
0.329	0.00143824
0.316	0.00146258
0.303	0.00147719
0.29	0.00149196
0.277	0.00150621
0.264	0.00151827
0.251	0.00152450
0.238	0.00153433
0.225	0.00154461
0.212	0.00155486
0.199	0.00156913
0.186	0.00157560
0.173	0.00158417
0.16	0.00158880
0.147	0.00159629
0.134	0.00160101
0.121	0.00160456
0.108	0.00160812
0.09500000	0.00161053
0.08200000	0.00161414
0.06900000	0.00161729
0.05600000	0.00161849
0.04300000	0.00162138
0.03000000	0.00162358
0.01700000	0.00162548
0.00400000	0.00162795
-0.00900000	0.00162993
-0.02200000	0.00163162
-0.03500000	0.00163243
-0.04800000	0.00163419
-0.06100000	0.00163495
-0.07400000	0.00163653
-0.08700000	0.00163764
-0.1	0.00163926