Folder: YanLab/Data/IV_data/20240619 - Freezing PVSK #1 - JV Data (part 7)

File: FZ_009-4_ITO+SnO2+PVSK+PEAI+Spiro+Carbon (LN2)  2024-06-19 11-31-45.txt
Device Id	Operator	Recipe
FZ_009-4_ITO+SnO2+PVSK+PEAI+Spiro+Carbon (LN2) 	Unknown	Jacob PVSKT _ 0.08cm2 (nature recipe).IV

Sample Area	Irradiance	Pre sweep delay	Bias Direction	Max Reverse Bias	Max Forward Bias	Num Sweep Points	Dwell Time	Current Limit	PVIV 10A I-AMP	Average	Dark Current	Rshunt V-Lo	Rshunt V-Hi
0.080000	1.0000	0.5000	0	-0.1000	1.2000	101	10	130	0	1	0	-0.6000	-0.1000

Voc V	Isc A	Jsc mA/cm2	Imax A	Vmax V	Pmax mW	Fill Factor	Efficiency	R at Voc	R at Isc	Power W	RShunt ohms	Cell Temp start	Cell Temp end	Exposure	Time	Date
0.246759	0.00082559	10.3198	0.00043183	0.124644	0.05382579	26.4213	0.6728	257.169	338.341	0.00010597	NaN	NaN	NaN	8.359	11:31:45	06/19/2024

Vmeas	Imeas
1.2	-0.00620280
1.187	-0.00617530
1.174	-0.00596364
1.161	-0.00580763
1.148	-0.00564044
1.135	-0.00543262
1.122	-0.00527758
1.109	-0.00509799
1.096	-0.00493532
1.083	-0.00478078
1.07	-0.00463184
1.057	-0.00448113
1.044	-0.00435600
1.031	-0.00421554
1.018	-0.00407632
1.005	-0.00395534
0.992	-0.00383396
0.979	-0.00371476
0.966	-0.00360110
0.953	-0.00349390
0.94	-0.00340063
0.927	-0.00330472
0.914	-0.00321102
0.901	-0.00311215
0.888	-0.00302462
0.875	-0.00294088
0.862	-0.00285638
0.849	-0.00277429
0.836	-0.00268476
0.823	-0.00259883
0.81	-0.00252472
0.797	-0.00245424
0.784	-0.00237483
0.771	-0.00229489
0.758	-0.00222419
0.745	-0.00214269
0.732	-0.00207414
0.719	-0.00200973
0.706	-0.00194456
0.693	-0.00187251
0.68	-0.00181461
0.667	-0.00174523
0.654	-0.00167671
0.641	-0.00161517
0.628	-0.00155594
0.615	-0.00149347
0.602	-0.00142638
0.589	-0.00134537
0.576	-0.00128732
0.563	-0.00122898
0.55	-0.00116672
0.537	-0.00111640
0.524	-0.00106564
0.511	-0.00101100
0.498	-0.00097414
0.485	-0.00091646
0.472	-0.00085868
0.459	-0.00080704
0.446	-0.00075574
0.433	-0.00070285
0.42	-0.00065443
0.407	-0.00060316
0.394	-0.00054933
0.381	-0.00049710
0.368	-0.00044773
0.355	-0.00039624
0.342	-0.00034615
0.329	-0.00029600
0.316	-0.00024706
0.303	-0.00019969
0.29	-0.00015108
0.277	-0.00010233
0.264	-0.00006757
0.251	-0.00001488
0.238	0.00003252
0.225	0.00008506
0.212	0.00012079
0.199	0.00017353
0.186	0.00021966
0.173	0.00026560
0.16	0.00031031
0.147	0.00035491
0.134	0.00039962
0.121	0.00044453
0.108	0.00049250
0.09500000	0.00053564
0.08200000	0.00057660
0.06900000	0.00061853
0.05600000	0.00065827
0.04300000	0.00069733
0.03000000	0.00073673
0.01700000	0.00077577
0.00400000	0.00081291
-0.00900000	0.00085262
-0.02200000	0.00088560
-0.03500000	0.00092018
-0.04800000	0.00095493
-0.06100000	0.00098911
-0.07400000	0.00102306
-0.08700000	0.00105004
-0.1	0.00107190