Folder: YanLab/Data/IV_data/2024-06-04-A3-1_A3-6 (part 3)

File: A3-6-D_ITO+SnO2+PVSK+C6Br+Spiro+Carbon (Air quench) 2024-06-04 15-36-20.txt
Device Id	Operator	Recipe
A3-6-D_ITO+SnO2+PVSK+C6Br+Spiro+Carbon (Air quench)	Unknown	Jacob PVSKT _ 0.077cm^2 (nature recipe).IV

Sample Area	Irradiance	Pre sweep delay	Bias Direction	Max Reverse Bias	Max Forward Bias	Num Sweep Points	Dwell Time	Current Limit	PVIV 10A I-AMP	Average	Dark Current	Rshunt V-Lo	Rshunt V-Hi
0.077170	1.0000	0.5000	0	-0.1000	1.2000	101	10	130	0	1	0	-0.6000	-0.1000

Voc V	Isc A	Jsc mA/cm2	Imax A	Vmax V	Pmax mW	Fill Factor	Efficiency	R at Voc	R at Isc	Power W	RShunt ohms	Cell Temp start	Cell Temp end	Exposure	Time	Date
0.253254	0.00115051	14.9087	0.00053795	0.146047	0.07856538	26.9641	1.0181	149.149	235.746	0.00015381	NaN	NaN	NaN	8.562	15:36:20	06/04/2024

Vmeas	Imeas
1.2	-0.00462017
1.187	-0.00429536
1.174	-0.00420457
1.161	-0.00395560
1.148	-0.00407295
1.135	-0.00380425
1.122	-0.00354968
1.109	-0.00346709
1.096	-0.00346794
1.083	-0.00354035
1.07	-0.00345709
1.057	-0.00329832
1.044	-0.00346410
1.031	-0.00332210
1.018	-0.00343536
1.005	-0.00341038
0.992	-0.00340844
0.979	-0.00342135
0.966	-0.00369111
0.953	-0.00339417
0.94	-0.00316382
0.927	-0.00326273
0.914	-0.00348155
0.901	-0.00349728
0.888	-0.00343255
0.875	-0.00315277
0.862	-0.00307011
0.849	-0.00307905
0.836	-0.00293723
0.823	-0.00310073
0.81	-0.00302663
0.797	-0.00279282
0.784	-0.00245493
0.771	-0.00264285
0.758	-0.00246065
0.745	-0.00262567
0.732	-0.00264653
0.719	-0.00248919
0.706	-0.00236236
0.693	-0.00227051
0.68	-0.00225309
0.667	-0.00215609
0.654	-0.00208317
0.641	-0.00198863
0.628	-0.00190432
0.615	-0.00181129
0.602	-0.00173994
0.589	-0.00165233
0.576	-0.00163092
0.563	-0.00154607
0.55	-0.00146102
0.537	-0.00143402
0.524	-0.00127464
0.511	-0.00117977
0.498	-0.00116289
0.485	-0.00111327
0.472	-0.00101144
0.459	-0.00092397
0.446	-0.00086053
0.433	-0.00093050
0.42	-0.00086722
0.407	-0.00081019
0.394	-0.00072691
0.381	-0.00067386
0.368	-0.00059698
0.355	-0.00052828
0.342	-0.00047036
0.329	-0.00040406
0.316	-0.00034000
0.303	-0.00026990
0.29	-0.00020035
0.277	-0.00011486
0.264	-0.00006034
0.251	-0.00000268
0.238	0.00010836
0.225	0.00017402
0.212	0.00023304
0.199	0.00030831
0.186	0.00035023
0.173	0.00040705
0.16	0.00047801
0.147	0.00053440
0.134	0.00057970
0.121	0.00063532
0.108	0.00069089
0.09500000	0.00074634
0.08200000	0.00080378
0.06900000	0.00086327
0.05600000	0.00091968
0.04300000	0.00097441
0.03000000	0.00102747
0.01700000	0.00108042
0.00400000	0.00113354
-0.00900000	0.00118868
-0.02200000	0.00124292
-0.03500000	0.00129609
-0.04800000	0.00134889
-0.06100000	0.00140181
-0.07400000	0.00145395
-0.08700000	0.00150622
-0.1	0.00155730

File: A3-6-E_ITO+SnO2+PVSK+C6Br+Spiro+Carbon (Air quench) 2024-06-04 15-36-54.txt
Device Id	Operator	Recipe
A3-6-E_ITO+SnO2+PVSK+C6Br+Spiro+Carbon (Air quench)	Unknown	Jacob PVSKT _ 0.077cm^2 (nature recipe).IV

Sample Area	Irradiance	Pre sweep delay	Bias Direction	Max Reverse Bias	Max Forward Bias	Num Sweep Points	Dwell Time	Current Limit	PVIV 10A I-AMP	Average	Dark Current	Rshunt V-Lo	Rshunt V-Hi
0.077170	1.0000	0.5000	0	-0.1000	1.2000	101	10	130	0	1	0	-0.6000	-0.1000

Voc V	Isc A	Jsc mA/cm2	Imax A	Vmax V	Pmax mW	Fill Factor	Efficiency	R at Voc	R at Isc	Power W	RShunt ohms	Cell Temp start	Cell Temp end	Exposure	Time	Date
0.170098	0.00114948	14.8955	0.00057767	0.08694012	0.05022308	25.6862	0.6508	145.801	159.537	0.00009948	NaN	NaN	NaN	8.344	15:36:54	06/04/2024

Vmeas	Imeas
1.2	-0.00603220
1.187	-0.00895335
1.174	-0.00879015
1.161	-0.00714318
1.148	-0.00542114
1.135	-0.00562013
1.122	-0.00584216
1.109	-0.00524401
1.096	-0.00527705
1.083	-0.00497349
1.07	-0.00500762
1.057	-0.00471100
1.044	-0.00545507
1.031	-0.00526350
1.018	-0.00726575
1.005	-0.00667077
0.992	-0.00631192
0.979	-0.00609499
0.966	-0.00621528
0.953	-0.00613607
0.94	-0.00630361
0.927	-0.00606236
0.914	-0.00610039
0.901	-0.00601228
0.888	-0.00604081
0.875	-0.00600235
0.862	-0.00596806
0.849	-0.00590147
0.836	-0.00575205
0.823	-0.00564340
0.81	-0.00543826
0.797	-0.00526678
0.784	-0.00519492
0.771	-0.00509756
0.758	-0.00494921
0.745	-0.00491194
0.732	-0.00482385
0.719	-0.00462447
0.706	-0.00443512
0.693	-0.00435480
0.68	-0.00420267
0.667	-0.00408538
0.654	-0.00398565
0.641	-0.00373658
0.628	-0.00361540
0.615	-0.00350056
0.602	-0.00339902
0.589	-0.00327790
0.576	-0.00312602
0.563	-0.00298795
0.55	-0.00270196
0.537	-0.00261218
0.524	-0.00269198
0.511	-0.00265595
0.498	-0.00253688
0.485	-0.00244090
0.472	-0.00225756
0.459	-0.00210454
0.446	-0.00201213
0.433	-0.00191387
0.42	-0.00181984
0.407	-0.00171569
0.394	-0.00161883
0.381	-0.00152005
0.368	-0.00142611
0.355	-0.00133728
0.342	-0.00124125
0.329	-0.00113692
0.316	-0.00104456
0.303	-0.00094969
0.29	-0.00085645
0.277	-0.00076770
0.264	-0.00066403
0.251	-0.00057091
0.238	-0.00048382
0.225	-0.00038615
0.212	-0.00029849
0.199	-0.00020632
0.186	-0.00011009
0.173	-0.00001778
0.16	0.00006816
0.147	0.00016676
0.134	0.00025771
0.121	0.00034686
0.108	0.00043547
0.09500000	0.00052375
0.08200000	0.00061034
0.06900000	0.00069463
0.05600000	0.00078066
0.04300000	0.00086894
0.03000000	0.00095531
0.01700000	0.00103867
0.00400000	0.00112441
-0.00900000	0.00120590
-0.02200000	0.00128612
-0.03500000	0.00136493
-0.04800000	0.00144292
-0.06100000	0.00151897
-0.07400000	0.00159402
-0.08700000	0.00166796
-0.1	0.00174079