Folder: YanLab/Data/IV_data/2024-05-02 (part 2)

File: A4-1_ITO+SnO2+PVSK+C6Br+Spiro+Carbon (Air Quench)  2024-04-18 20-16-15 2024-05-06 19-38-02.txt
Device Id	Operator	Recipe
A4-1_ITO+SnO2+PVSK+C6Br+Spiro+Carbon (Air Quench)  2024-04-18 20-16-15	Unknown	Jacob PVSKT _ 0.077cm^2 (nature recipe).IV

Sample Area	Irradiance	Pre sweep delay	Bias Direction	Max Reverse Bias	Max Forward Bias	Num Sweep Points	Dwell Time	Current Limit	PVIV 10A I-AMP	Average	Dark Current	Rshunt V-Lo	Rshunt V-Hi
0.077170	1.0000	0.5000	0	-0.1000	1.2000	101	10	130	0	1	0	-0.6000	-0.1000

Voc V	Isc A	Jsc mA/cm2	Imax A	Vmax V	Pmax mW	Fill Factor	Efficiency	R at Voc	R at Isc	Power W	RShunt ohms	Cell Temp start	Cell Temp end	Exposure	Time	Date
0.591362	0.00117020	15.164	0.00067901	0.330141	0.22417	32.3938	2.9049	387.239	952.992	0.00041216	NaN	NaN	NaN	9.234	19:38:02	05/06/2024

Vmeas	Imeas
1.2	-0.00150580
1.187	-0.00143475
1.174	-0.00137727
1.161	-0.00131285
1.148	-0.00125297
1.135	-0.00119733
1.122	-0.00114291
1.109	-0.00109488
1.096	-0.00105114
1.083	-0.00101121
1.07	-0.00097141
1.057	-0.00093875
1.044	-0.00090845
1.031	-0.00087773
1.018	-0.00084904
1.005	-0.00082380
0.992	-0.00079682
0.979	-0.00077090
0.966	-0.00076653
0.953	-0.00078395
0.94	-0.00070519
0.927	-0.00076210
0.914	-0.00076303
0.901	-0.00075165
0.888	-0.00072754
0.875	-0.00070049
0.862	-0.00067746
0.849	-0.00064539
0.836	-0.00060914
0.823	-0.00057934
0.81	-0.00054322
0.797	-0.00050392
0.784	-0.00046593
0.771	-0.00042743
0.758	-0.00038417
0.745	-0.00034255
0.732	-0.00030775
0.719	-0.00014755
0.706	-0.00010235
0.693	-0.00031149
0.68	-0.00026116
0.667	-0.00021479
0.654	-0.00017068
0.641	-0.00012294
0.628	-0.00008271
0.615	-0.00004520
0.602	-0.00005218
0.589	-0.00000438
0.576	0.00003204
0.563	0.00008041
0.55	0.00010089
0.537	0.00014895
0.524	0.00019239
0.511	0.00023094
0.498	0.00026741
0.485	0.00030505
0.472	0.00033775
0.459	0.00037326
0.446	0.00040878
0.433	0.00045004
0.42	0.00047477
0.407	0.00050350
0.394	0.00053382
0.381	0.00056836
0.368	0.00060386
0.355	0.00062367
0.342	0.00065151
0.329	0.00068092
0.316	0.00071163
0.303	0.00073665
0.29	0.00076424
0.277	0.00079477
0.264	0.00082648
0.251	0.00084461
0.238	0.00087361
0.225	0.00089347
0.212	0.00091008
0.199	0.00093261
0.186	0.00096857
0.173	0.00099898
0.16	0.00101447
0.147	0.00102984
0.134	0.00104413
0.121	0.00103441
0.108	0.00105016
0.09500000	0.00106481
0.08200000	0.00107997
0.06900000	0.00109492
0.05600000	0.00111022
0.04300000	0.00112538
0.03000000	0.00113887
0.01700000	0.00115229
0.00400000	0.00116661
-0.00900000	0.00117983
-0.02200000	0.00119393
-0.03500000	0.00120818
-0.04800000	0.00122043
-0.06100000	0.00123253
-0.07400000	0.00124432
-0.08700000	0.00125605
-0.1	0.00126679

File: A4-2_ITO+SnO2+PVSK+C6Br+Spiro+Carbon (Air Quench)  2024-04-18 20-16-15 2024-05-06 19-38-26.txt
Device Id	Operator	Recipe
A4-1_ITO+SnO2+PVSK+C6Br+Spiro+Carbon (Air Quench)  2024-04-18 20-16-15	Unknown	Jacob PVSKT _ 0.077cm^2 (nature recipe).IV

Sample Area	Irradiance	Pre sweep delay	Bias Direction	Max Reverse Bias	Max Forward Bias	Num Sweep Points	Dwell Time	Current Limit	PVIV 10A I-AMP	Average	Dark Current	Rshunt V-Lo	Rshunt V-Hi
0.077170	1.0000	0.5000	0	-0.1000	1.2000	101	10	130	0	1	0	-0.6000	-0.1000

Voc V	Isc A	Jsc mA/cm2	Imax A	Vmax V	Pmax mW	Fill Factor	Efficiency	R at Voc	R at Isc	Power W	RShunt ohms	Cell Temp start	Cell Temp end	Exposure	Time	Date
0.974584	0.00144446	18.7179	0.00091129	0.550936	0.50206	35.6641	6.5059	320.024	2767.915	0.00090232	NaN	NaN	NaN	8.500	19:38:26	05/06/2024

Vmeas	Imeas
1.2	-0.00081305
1.187	-0.00077807
1.174	-0.00073310
1.161	-0.00068372
1.148	-0.00063220
1.135	-0.00057961
1.122	-0.00052705
1.109	-0.00047461
1.096	-0.00042313
1.083	-0.00037220
1.07	-0.00032194
1.057	-0.00027278
1.044	-0.00022454
1.031	-0.00017772
1.018	-0.00013209
1.005	-0.00008595
0.992	-0.00004417
0.979	-0.00000225
0.966	0.00003807
0.953	0.00007696
0.94	0.00011315
0.927	0.00015047
0.914	0.00018618
0.901	0.00022054
0.888	0.00025355
0.875	0.00028561
0.862	0.00031668
0.849	0.00034649
0.836	0.00037561
0.823	0.00040433
0.81	0.00043248
0.797	0.00045985
0.784	0.00048634
0.771	0.00051249
0.758	0.00053855
0.745	0.00056402
0.732	0.00058971
0.719	0.00061428
0.706	0.00063874
0.693	0.00066282
0.68	0.00068708
0.667	0.00071088
0.654	0.00073370
0.641	0.00075727
0.628	0.00078029
0.615	0.00080287
0.602	0.00082531
0.589	0.00084780
0.576	0.00087001
0.563	0.00089235
0.55	0.00091278
0.537	0.00093407
0.524	0.00095407
0.511	0.00097576
0.498	0.00099561
0.485	0.00101613
0.472	0.00103647
0.459	0.00105019
0.446	0.00107637
0.433	0.00108802
0.42	0.00110595
0.407	0.00112396
0.394	0.00114171
0.381	0.00115912
0.368	0.00117621
0.355	0.00119331
0.342	0.00120997
0.329	0.00122527
0.316	0.00123948
0.303	0.00125417
0.29	0.00126820
0.277	0.00128194
0.264	0.00129471
0.251	0.00130662
0.238	0.00131882
0.225	0.00133001
0.212	0.00134065
0.199	0.00135132
0.186	0.00136099
0.173	0.00137074
0.16	0.00137828
0.147	0.00138660
0.134	0.00139438
0.121	0.00140116
0.108	0.00140764
0.09500000	0.00141382
0.08200000	0.00141979
0.06900000	0.00142522
0.05600000	0.00143022
0.04300000	0.00143464
0.03000000	0.00143920
0.01700000	0.00144364
0.00400000	0.00144699
-0.00900000	0.00145139
-0.02200000	0.00145440
-0.03500000	0.00145749
-0.04800000	0.00146075
-0.06100000	0.00146372
-0.07400000	0.00146695
-0.08700000	0.00146902
-0.1	0.00147192

File: A4-3_ITO+SnO2+PVSK+C6Br+Spiro+Carbon (Air Quench)  2024-04-18 20-16-15 2024-05-06 19-39-13.txt
Device Id	Operator	Recipe
A4-2_ITO+SnO2+PVSK+C6Br+Spiro+Carbon (Air Quench)  2024-04-18 20-16-15	Unknown	Jacob PVSKT _ 0.077cm^2 (nature recipe).IV

Sample Area	Irradiance	Pre sweep delay	Bias Direction	Max Reverse Bias	Max Forward Bias	Num Sweep Points	Dwell Time	Current Limit	PVIV 10A I-AMP	Average	Dark Current	Rshunt V-Lo	Rshunt V-Hi
0.077170	1.0000	0.5000	0	-0.1000	1.2000	101	10	130	0	1	0	-0.6000	-0.1000

Voc V	Isc A	Jsc mA/cm2	Imax A	Vmax V	Pmax mW	Fill Factor	Efficiency	R at Voc	R at Isc	Power W	RShunt ohms	Cell Temp start	Cell Temp end	Exposure	Time	Date
0.955726	0.00139081	18.0227	0.00085703	0.529155	0.4535	34.1174	5.8766	367.82	2683.799	0.00082616	NaN	NaN	NaN	8.297	19:39:13	05/06/2024

Vmeas	Imeas
1.2	-0.00082022
1.187	-0.00078711
1.174	-0.00074598
1.161	-0.00069997
1.148	-0.00065120
1.135	-0.00060096
1.122	-0.00055013
1.109	-0.00049930
1.096	-0.00044861
1.083	-0.00039895
1.07	-0.00035055
1.057	-0.00030326
1.044	-0.00025729
1.031	-0.00021285
1.018	-0.00017011
1.005	-0.00012906
0.992	-0.00008743
0.979	-0.00005142
0.966	-0.00001547
0.953	0.00001934
0.94	0.00005289
0.927	0.00008519
0.914	0.00011108
0.901	0.00014314
0.888	0.00017358
0.875	0.00020305
0.862	0.00023157
0.849	0.00025975
0.836	0.00028719
0.823	0.00031438
0.81	0.00034096
0.797	0.00036719
0.784	0.00039328
0.771	0.00041917
0.758	0.00044475
0.745	0.00047012
0.732	0.00049418
0.719	0.00051970
0.706	0.00054461
0.693	0.00056947
0.68	0.00059404
0.667	0.00061806
0.654	0.00064166
0.641	0.00066517
0.628	0.00068841
0.615	0.00071152
0.602	0.00073471
0.589	0.00075723
0.576	0.00077955
0.563	0.00080147
0.55	0.00082310
0.537	0.00084450
0.524	0.00086575
0.511	0.00088525
0.498	0.00090665
0.485	0.00092719
0.472	0.00094734
0.459	0.00096757
0.446	0.00098705
0.433	0.00100631
0.42	0.00102538
0.407	0.00104368
0.394	0.00105019
0.381	0.00107954
0.368	0.00109119
0.355	0.00110820
0.342	0.00112543
0.329	0.00114228
0.316	0.00115894
0.303	0.00117544
0.29	0.00119053
0.277	0.00120617
0.264	0.00122046
0.251	0.00123471
0.238	0.00124875
0.225	0.00126107
0.212	0.00127362
0.199	0.00128570
0.186	0.00129720
0.173	0.00130760
0.16	0.00131767
0.147	0.00132727
0.134	0.00133587
0.121	0.00134366
0.108	0.00135146
0.09500000	0.00135893
0.08200000	0.00136479
0.06900000	0.00137100
0.05600000	0.00137663
0.04300000	0.00138152
0.03000000	0.00138628
0.01700000	0.00139061
0.00400000	0.00139430
-0.00900000	0.00140082
-0.02200000	0.00140214
-0.03500000	0.00140485
-0.04800000	0.00140764
-0.06100000	0.00141046
-0.07400000	0.00141360
-0.08700000	0.00141545
-0.1	0.00141734

File: A4-4_ITO+SnO2+PVSK+C6Br+Spiro+Carbon (Air Quench)  2024-04-18 20-16-15 2024-05-06 19-39-36.txt
Device Id	Operator	Recipe
A4-2_ITO+SnO2+PVSK+C6Br+Spiro+Carbon (Air Quench)  2024-04-18 20-16-15	Unknown	Jacob PVSKT _ 0.077cm^2 (nature recipe).IV

Sample Area	Irradiance	Pre sweep delay	Bias Direction	Max Reverse Bias	Max Forward Bias	Num Sweep Points	Dwell Time	Current Limit	PVIV 10A I-AMP	Average	Dark Current	Rshunt V-Lo	Rshunt V-Hi
0.077170	1.0000	0.5000	0	-0.1000	1.2000	101	10	130	0	1	0	-0.6000	-0.1000

Voc V	Isc A	Jsc mA/cm2	Imax A	Vmax V	Pmax mW	Fill Factor	Efficiency	R at Voc	R at Isc	Power W	RShunt ohms	Cell Temp start	Cell Temp end	Exposure	Time	Date
0.996923	0.00151842	19.6763	0.00084595	0.656601	0.555452	36.6939	7.1978	310.856	3601.394	0.00100088	NaN	NaN	NaN	8.297	19:39:36	05/06/2024

Vmeas	Imeas
1.2	-0.00059074
1.187	-0.00059134
1.174	-0.00057287
1.161	-0.00054507
1.148	-0.00051049
1.135	-0.00047144
1.122	-0.00042715
1.109	-0.00038376
1.096	-0.00033897
1.083	-0.00029255
1.07	-0.00024394
1.057	-0.00019653
1.044	-0.00014909
1.031	-0.00010348
1.018	-0.00005778
1.005	-0.00001500
0.992	0.00002703
0.979	0.00006774
0.966	0.00010727
0.953	0.00014571
0.94	0.00018306
0.927	0.00022058
0.914	0.00025745
0.901	0.00029307
0.888	0.00032690
0.875	0.00036739
0.862	0.00039088
0.849	0.00042683
0.836	0.00045798
0.823	0.00048826
0.81	0.00054526
0.797	0.00058706
0.784	0.00060081
0.771	0.00062379
0.758	0.00065273
0.745	0.00068357
0.732	0.00070907
0.719	0.00073444
0.706	0.00076407
0.693	0.00078414
0.68	0.00081389
0.667	0.00083572
0.654	0.00086164
0.641	0.00086773
0.628	0.00087621
0.615	0.00089245
0.602	0.00091461
0.589	0.00094229
0.576	0.00096556
0.563	0.00099042
0.55	0.00101379
0.537	0.00103154
0.524	0.00105019
0.511	0.00107628
0.498	0.00109337
0.485	0.00112078
0.472	0.00114352
0.459	0.00115627
0.446	0.00117606
0.433	0.00119175
0.42	0.00121900
0.407	0.00123804
0.394	0.00125642
0.381	0.00127136
0.368	0.00129268
0.355	0.00130763
0.342	0.00132307
0.329	0.00134226
0.316	0.00135096
0.303	0.00136845
0.29	0.00137443
0.277	0.00139044
0.264	0.00139945
0.251	0.00140833
0.238	0.00142414
0.225	0.00143881
0.212	0.00144582
0.199	0.00145715
0.186	0.00146510
0.173	0.00147489
0.16	0.00147507
0.147	0.00148620
0.134	0.00149745
0.121	0.00150629
0.108	0.00150634
0.09500000	0.00150984
0.08200000	0.00151745
0.06900000	0.00151684
0.05600000	0.00152088
0.04300000	0.00151840
0.03000000	0.00151837
0.01700000	0.00150956
0.00400000	0.00149277
-0.00900000	0.00147836
-0.02200000	0.00152104
-0.03500000	0.00147152
-0.04800000	0.00152098
-0.06100000	0.00153765
-0.07400000	0.00158028
-0.08700000	0.00160013
-0.1	0.00160020

File: A4-5_ITO+SnO2+PVSK+C6Br+Spiro+Carbon (Air Quench)  2024-04-18 20-16-15 2024-05-06 19-43-53.txt
Device Id	Operator	Recipe
A4-5_ITO+SnO2+PVSK+C6Br+Spiro+Carbon (Air Quench)  2024-04-18 20-16-15	Unknown	Jacob PVSKT _ 0.077cm^2 (nature recipe).IV

Sample Area	Irradiance	Pre sweep delay	Bias Direction	Max Reverse Bias	Max Forward Bias	Num Sweep Points	Dwell Time	Current Limit	PVIV 10A I-AMP	Average	Dark Current	Rshunt V-Lo	Rshunt V-Hi
0.077170	1.0000	0.5000	0	-0.1000	1.2000	101	10	130	0	1	0	-0.6000	-0.1000

Voc V	Isc A	Jsc mA/cm2	Imax A	Vmax V	Pmax mW	Fill Factor	Efficiency	R at Voc	R at Isc	Power W	RShunt ohms	Cell Temp start	Cell Temp end	Exposure	Time	Date
0.979935	0.00124245	16.1002	0.00087462	0.564011	0.493297	40.5165	6.3923	246.893	7072.446	0.00085424	NaN	NaN	NaN	8.359	19:43:53	05/06/2024

Vmeas	Imeas
1.2	-0.00149635
1.187	-0.00143617
1.174	-0.00134422
1.161	-0.00123813
1.148	-0.00112651
1.135	-0.00101399
1.122	-0.00089524
1.109	-0.00079280
1.096	-0.00068853
1.083	-0.00058725
1.07	-0.00049029
1.057	-0.00039848
1.044	-0.00031218
1.031	-0.00023192
1.018	-0.00015774
1.005	-0.00008584
0.992	-0.00002689
0.979	0.00002872
0.966	0.00007961
0.953	0.00011880
0.94	0.00016272
0.927	0.00020178
0.914	0.00023719
0.901	0.00026973
0.888	0.00030007
0.875	0.00032861
0.862	0.00035568
0.849	0.00038187
0.836	0.00040717
0.823	0.00043166
0.81	0.00045583
0.797	0.00047982
0.784	0.00050329
0.771	0.00052679
0.758	0.00055005
0.745	0.00057095
0.732	0.00059506
0.719	0.00061836
0.706	0.00064080
0.693	0.00066325
0.68	0.00068537
0.667	0.00070729
0.654	0.00072910
0.641	0.00075117
0.628	0.00077274
0.615	0.00079386
0.602	0.00081457
0.589	0.00083523
0.576	0.00085562
0.563	0.00087614
0.55	0.00089624
0.537	0.00091599
0.524	0.00093510
0.511	0.00095416
0.498	0.00097279
0.485	0.00099148
0.472	0.00100900
0.459	0.00102674
0.446	0.00104470
0.433	0.00105019
0.42	0.00108006
0.407	0.00108686
0.394	0.00110030
0.381	0.00111396
0.368	0.00112644
0.355	0.00113828
0.342	0.00114941
0.329	0.00115962
0.316	0.00116884
0.303	0.00117712
0.29	0.00118476
0.277	0.00119112
0.264	0.00119751
0.251	0.00120249
0.238	0.00120734
0.225	0.00121155
0.212	0.00121507
0.199	0.00121833
0.186	0.00122154
0.173	0.00122382
0.16	0.00122575
0.147	0.00122799
0.134	0.00122967
0.121	0.00123182
0.108	0.00123329
0.09500000	0.00123437
0.08200000	0.00123572
0.06900000	0.00123724
0.05600000	0.00123808
0.04300000	0.00123904
0.03000000	0.00124040
0.01700000	0.00124119
0.00400000	0.00124224
-0.00900000	0.00124374
-0.02200000	0.00124398
-0.03500000	0.00124539
-0.04800000	0.00124588
-0.06100000	0.00124637
-0.07400000	0.00124688
-0.08700000	0.00124843
-0.1	0.00124856

File: A5-1_ITO+SnO2+PVSK+C6Br+Spiro+Carbon (Air Quench)  2024-04-18 20-16-15 2024-05-06 19-56-12.txt
Device Id	Operator	Recipe
A5-1_ITO+SnO2+PVSK+C6Br+Spiro+Carbon (Air Quench)  2024-04-18 20-16-15	Unknown	Jacob PVSKT _ 0.077cm^2 (nature recipe).IV

Sample Area	Irradiance	Pre sweep delay	Bias Direction	Max Reverse Bias	Max Forward Bias	Num Sweep Points	Dwell Time	Current Limit	PVIV 10A I-AMP	Average	Dark Current	Rshunt V-Lo	Rshunt V-Hi
0.077170	1.0000	0.5000	0	-0.1000	1.2000	101	10	130	0	1	0	-0.6000	-0.1000

Voc V	Isc A	Jsc mA/cm2	Imax A	Vmax V	Pmax mW	Fill Factor	Efficiency	R at Voc	R at Isc	Power W	RShunt ohms	Cell Temp start	Cell Temp end	Exposure	Time	Date
1.00087	0.00113796	14.7462	0.00086207	0.558618	0.481566	42.2813	6.2403	292.981	11369.182	0.00081268	NaN	NaN	NaN	8.687	19:56:12	05/06/2024

Vmeas	Imeas
1.2	-0.00109711
1.187	-0.00101979
1.174	-0.00093885
1.161	-0.00085424
1.148	-0.00076669
1.135	-0.00067932
1.122	-0.00059378
1.109	-0.00051128
1.096	-0.00043173
1.083	-0.00035586
1.07	-0.00028410
1.057	-0.00021663
1.044	-0.00015368
1.031	-0.00009151
1.018	-0.00004036
1.005	0.00000837
0.992	0.00005127
0.979	0.00009259
0.966	0.00012500
0.953	0.00016187
0.94	0.00019464
0.927	0.00022461
0.914	0.00025260
0.901	0.00027902
0.888	0.00030402
0.875	0.00032822
0.862	0.00035148
0.849	0.00037464
0.836	0.00039730
0.823	0.00041978
0.81	0.00044197
0.797	0.00046418
0.784	0.00048627
0.771	0.00050843
0.758	0.00053086
0.745	0.00055304
0.732	0.00057519
0.719	0.00059709
0.706	0.00061901
0.693	0.00064102
0.68	0.00066312
0.667	0.00068506
0.654	0.00070687
0.641	0.00072799
0.628	0.00074989
0.615	0.00077210
0.602	0.00079353
0.589	0.00081422
0.576	0.00083478
0.563	0.00085546
0.55	0.00087494
0.537	0.00089444
0.524	0.00091368
0.511	0.00093217
0.498	0.00094967
0.485	0.00096623
0.472	0.00098206
0.459	0.00099676
0.446	0.00101079
0.433	0.00102345
0.42	0.00103566
0.407	0.00104659
0.394	0.00105507
0.381	0.00106170
0.368	0.00106989
0.355	0.00107738
0.342	0.00108429
0.329	0.00109024
0.316	0.00109545
0.303	0.00110002
0.29	0.00110470
0.277	0.00110807
0.264	0.00111126
0.251	0.00111380
0.238	0.00111648
0.225	0.00111851
0.212	0.00112058
0.199	0.00112212
0.186	0.00112422
0.173	0.00112534
0.16	0.00112677
0.147	0.00112790
0.134	0.00112902
0.121	0.00113001
0.108	0.00113088
0.09500000	0.00113238
0.08200000	0.00113332
0.06900000	0.00113443
0.05600000	0.00113501
0.04300000	0.00113510
0.03000000	0.00113626
0.01700000	0.00113648
0.00400000	0.00113747
-0.00900000	0.00113898
-0.02200000	0.00113935
-0.03500000	0.00113955
-0.04800000	0.00114079
-0.06100000	0.00114138
-0.07400000	0.00114187
-0.08700000	0.00114239
-0.1	0.00114333

File: A5-2_ITO+SnO2+PVSK+C6Br+Spiro+Carbon (Air Quench)  2024-04-18 20-16-15 2024-05-06 19-56-43.txt
Device Id	Operator	Recipe
A5-2_ITO+SnO2+PVSK+C6Br+Spiro+Carbon (Air Quench)  2024-04-18 20-16-15	Unknown	Jacob PVSKT _ 0.077cm^2 (nature recipe).IV

Sample Area	Irradiance	Pre sweep delay	Bias Direction	Max Reverse Bias	Max Forward Bias	Num Sweep Points	Dwell Time	Current Limit	PVIV 10A I-AMP	Average	Dark Current	Rshunt V-Lo	Rshunt V-Hi
0.077170	1.0000	0.5000	0	-0.1000	1.2000	101	10	130	0	1	0	-0.6000	-0.1000

Voc V	Isc A	Jsc mA/cm2	Imax A	Vmax V	Pmax mW	Fill Factor	Efficiency	R at Voc	R at Isc	Power W	RShunt ohms	Cell Temp start	Cell Temp end	Exposure	Time	Date
1.01095	0.00114122	14.7884	0.00084286	0.578801	0.487851	42.2852	6.3218	287.128	10242.216	0.00082592	NaN	NaN	NaN	8.500	19:56:43	05/06/2024

Vmeas	Imeas
1.2	-0.00100027
1.187	-0.00094918
1.174	-0.00087752
1.161	-0.00079713
1.148	-0.00071362
1.135	-0.00062970
1.122	-0.00054689
1.109	-0.00046645
1.096	-0.00038906
1.083	-0.00031517
1.07	-0.00024528
1.057	-0.00017951
1.044	-0.00011813
1.031	-0.00005873
1.018	-0.00000755
1.005	0.00003902
0.992	0.00008328
0.979	0.00011897
0.966	0.00015851
0.953	0.00019402
0.94	0.00022605
0.927	0.00025612
0.914	0.00028434
0.901	0.00031082
0.888	0.00033602
0.875	0.00036029
0.862	0.00038398
0.849	0.00040713
0.836	0.00042974
0.823	0.00045202
0.81	0.00047419
0.797	0.00049580
0.784	0.00051760
0.771	0.00053948
0.758	0.00056080
0.745	0.00058216
0.732	0.00060346
0.719	0.00062461
0.706	0.00064290
0.693	0.00066582
0.68	0.00068715
0.667	0.00070764
0.654	0.00072813
0.641	0.00074882
0.628	0.00076898
0.615	0.00078910
0.602	0.00080866
0.589	0.00082787
0.576	0.00084672
0.563	0.00086526
0.55	0.00088352
0.537	0.00090150
0.524	0.00091926
0.511	0.00093577
0.498	0.00095211
0.485	0.00096776
0.472	0.00098267
0.459	0.00099673
0.446	0.00101036
0.433	0.00102246
0.42	0.00103415
0.407	0.00104544
0.394	0.00105428
0.381	0.00106015
0.368	0.00106837
0.355	0.00107653
0.342	0.00108362
0.329	0.00108979
0.316	0.00109601
0.303	0.00110077
0.29	0.00110526
0.277	0.00110945
0.264	0.00111269
0.251	0.00111575
0.238	0.00111898
0.225	0.00112099
0.212	0.00112308
0.199	0.00112499
0.186	0.00112627
0.173	0.00112748
0.16	0.00112958
0.147	0.00113125
0.134	0.00113181
0.121	0.00113333
0.108	0.00113406
0.09500000	0.00113459
0.08200000	0.00113580
0.06900000	0.00113686
0.05600000	0.00113744
0.04300000	0.00113882
0.03000000	0.00113935
0.01700000	0.00113993
0.00400000	0.00114071
-0.00900000	0.00114184
-0.02200000	0.00114240
-0.03500000	0.00114278
-0.04800000	0.00114353
-0.06100000	0.00114499
-0.07400000	0.00114463
-0.08700000	0.00114585
-0.1	0.00114665

File: A5-3_ITO+SnO2+PVSK+C6Br+Spiro+Carbon (Air Quench)  2024-04-18 20-16-15 2024-05-06 19-58-38.txt
Device Id	Operator	Recipe
A5-3_ITO+SnO2+PVSK+C6Br+Spiro+Carbon (Air Quench)  2024-04-18 20-16-15	Unknown	Jacob PVSKT _ 0.077cm^2 (nature recipe).IV

Sample Area	Irradiance	Pre sweep delay	Bias Direction	Max Reverse Bias	Max Forward Bias	Num Sweep Points	Dwell Time	Current Limit	PVIV 10A I-AMP	Average	Dark Current	Rshunt V-Lo	Rshunt V-Hi
0.077170	1.0000	0.5000	0	-0.1000	1.2000	101	10	130	0	1	0	-0.6000	-0.1000

Voc V	Isc A	Jsc mA/cm2	Imax A	Vmax V	Pmax mW	Fill Factor	Efficiency	R at Voc	R at Isc	Power W	RShunt ohms	Cell Temp start	Cell Temp end	Exposure	Time	Date
0.934408	0.00124434	16.1246	0.00079491	0.540476	0.429628	36.9503	5.5673	456.42	2397.064	0.00074551	NaN	NaN	NaN	8.281	19:58:38	05/06/2024

Vmeas	Imeas
1.2	-0.00077630
1.187	-0.00072496
1.174	-0.00067366
1.161	-0.00062326
1.148	-0.00057393
1.135	-0.00052539
1.122	-0.00047807
1.109	-0.00043475
1.096	-0.00039285
1.083	-0.00035346
1.07	-0.00031558
1.057	-0.00027998
1.044	-0.00024611
1.031	-0.00021450
1.018	-0.00018372
1.005	-0.00015447
0.992	-0.00012460
0.979	-0.00009861
0.966	-0.00006901
0.953	-0.00004088
0.94	-0.00001154
0.927	0.00001730
0.914	0.00004552
0.901	0.00007417
0.888	0.00010496
0.875	0.00012328
0.862	0.00015707
0.849	0.00018945
0.836	0.00022093
0.823	0.00025171
0.81	0.00028208
0.797	0.00031219
0.784	0.00034130
0.771	0.00037037
0.758	0.00039871
0.745	0.00042669
0.732	0.00045414
0.719	0.00048139
0.706	0.00050792
0.693	0.00053350
0.68	0.00055907
0.667	0.00058386
0.654	0.00060784
0.641	0.00063157
0.628	0.00065476
0.615	0.00067653
0.602	0.00069866
0.589	0.00071973
0.576	0.00074097
0.563	0.00076120
0.55	0.00078127
0.537	0.00080010
0.524	0.00081812
0.511	0.00083692
0.498	0.00085473
0.485	0.00087237
0.472	0.00088935
0.459	0.00090558
0.446	0.00092175
0.433	0.00093713
0.42	0.00095218
0.407	0.00096720
0.394	0.00098131
0.381	0.00099478
0.368	0.00100858
0.355	0.00102113
0.342	0.00103372
0.329	0.00104663
0.316	0.00105048
0.303	0.00106082
0.29	0.00107281
0.277	0.00108448
0.264	0.00109594
0.251	0.00110646
0.238	0.00111641
0.225	0.00112630
0.212	0.00113593
0.199	0.00114510
0.186	0.00115399
0.173	0.00116206
0.16	0.00117022
0.147	0.00117789
0.134	0.00118537
0.121	0.00119206
0.108	0.00119871
0.09500000	0.00120522
0.08200000	0.00121125
0.06900000	0.00121747
0.05600000	0.00122328
0.04300000	0.00122903
0.03000000	0.00123418
0.01700000	0.00123946
0.00400000	0.00124497
-0.00900000	0.00125154
-0.02200000	0.00125501
-0.03500000	0.00125981
-0.04800000	0.00126382
-0.06100000	0.00126876
-0.07400000	0.00127332
-0.08700000	0.00127787
-0.1	0.00128169

File: A5-4_ITO+SnO2+PVSK+C6Br+Spiro+Carbon (Air Quench)  2024-04-18 20-16-15 2024-05-06 19-59-26.txt
Device Id	Operator	Recipe
A5-4_ITO+SnO2+PVSK+C6Br+Spiro+Carbon (Air Quench)  2024-04-18 20-16-15	Unknown	Jacob PVSKT _ 0.077cm^2 (nature recipe).IV

Sample Area	Irradiance	Pre sweep delay	Bias Direction	Max Reverse Bias	Max Forward Bias	Num Sweep Points	Dwell Time	Current Limit	PVIV 10A I-AMP	Average	Dark Current	Rshunt V-Lo	Rshunt V-Hi
0.077170	1.0000	0.5000	0	-0.1000	1.2000	101	10	130	0	1	0	-0.6000	-0.1000

Voc V	Isc A	Jsc mA/cm2	Imax A	Vmax V	Pmax mW	Fill Factor	Efficiency	R at Voc	R at Isc	Power W	RShunt ohms	Cell Temp start	Cell Temp end	Exposure	Time	Date
1.03379	0.00127369	16.5049	0.00091757	0.554635	0.508918	38.6503	6.5948	369.309	4680.935	0.00088102	NaN	NaN	NaN	8.500	19:59:26	05/06/2024

Vmeas	Imeas
1.2	-0.00065175
1.187	-0.00059478
1.174	-0.00053259
1.161	-0.00046906
1.148	-0.00040612
1.135	-0.00034540
1.122	-0.00028693
1.109	-0.00023177
1.096	-0.00018009
1.083	-0.00013205
1.07	-0.00008531
1.057	-0.00004535
1.044	-0.00000686
1.031	0.00002799
1.018	0.00006182
1.005	0.00009372
0.992	0.00011807
0.979	0.00014826
0.966	0.00017474
0.953	0.00020253
0.94	0.00022662
0.927	0.00025288
0.914	0.00027524
0.901	0.00029835
0.888	0.00032213
0.875	0.00034445
0.862	0.00036745
0.849	0.00039074
0.836	0.00041374
0.823	0.00043813
0.81	0.00046099
0.797	0.00048357
0.784	0.00050791
0.771	0.00053170
0.758	0.00055511
0.745	0.00057740
0.732	0.00060111
0.719	0.00062471
0.706	0.00064838
0.693	0.00067345
0.68	0.00069745
0.667	0.00072067
0.654	0.00074423
0.641	0.00076744
0.628	0.00079161
0.615	0.00081438
0.602	0.00083725
0.589	0.00085884
0.576	0.00088250
0.563	0.00090458
0.55	0.00092539
0.537	0.00094665
0.524	0.00096554
0.511	0.00098612
0.498	0.00100485
0.485	0.00102250
0.472	0.00104079
0.459	0.00105019
0.446	0.00107270
0.433	0.00108160
0.42	0.00109457
0.407	0.00110874
0.394	0.00112181
0.381	0.00113487
0.368	0.00114655
0.355	0.00115604
0.342	0.00116627
0.329	0.00117539
0.316	0.00118373
0.303	0.00119170
0.29	0.00119877
0.277	0.00120414
0.264	0.00121043
0.251	0.00121546
0.238	0.00122029
0.225	0.00122607
0.212	0.00123072
0.199	0.00123480
0.186	0.00123841
0.173	0.00124162
0.16	0.00124393
0.147	0.00124830
0.134	0.00125027
0.121	0.00125373
0.108	0.00125428
0.09500000	0.00125663
0.08200000	0.00126040
0.06900000	0.00126252
0.05600000	0.00126552
0.04300000	0.00126846
0.03000000	0.00127061
0.01700000	0.00127294
0.00400000	0.00127444
-0.00900000	0.00127627
-0.02200000	0.00127826
-0.03500000	0.00127958
-0.04800000	0.00128019
-0.06100000	0.00128198
-0.07400000	0.00128411
-0.08700000	0.00128555
-0.1	0.00128641