Folder: YanLab/Data/IV_data/2024-06-04-A3-1_A3-6 (part 2)

File: A3-4-C_ITO+SnO2+PVSK+C6Br+Spiro+Carbon (Air quench) 2024-06-04 15-21-52.txt
Device Id	Operator	Recipe
A3-4-C_ITO+SnO2+PVSK+C6Br+Spiro+Carbon (Antisolvent)	Unknown	Jacob PVSKT _ 0.077cm^2 (nature recipe).IV

Sample Area	Irradiance	Pre sweep delay	Bias Direction	Max Reverse Bias	Max Forward Bias	Num Sweep Points	Dwell Time	Current Limit	PVIV 10A I-AMP	Average	Dark Current	Rshunt V-Lo	Rshunt V-Hi
0.077170	1.0000	0.5000	0	-0.1000	1.2000	101	10	130	0	1	0	-0.6000	-0.1000

Voc V	Isc A	Jsc mA/cm2	Imax A	Vmax V	Pmax mW	Fill Factor	Efficiency	R at Voc	R at Isc	Power W	RShunt ohms	Cell Temp start	Cell Temp end	Exposure	Time	Date
0.250268	0.00094867	12.2932	0.00048007	0.124886	0.05995464	25.2524	0.7769	263.201	267.622	0.00011973	NaN	NaN	NaN	8.562	15:21:52	06/04/2024

Vmeas	Imeas
1.2	-0.00446468
1.187	-0.00467342
1.174	-0.00446443
1.161	-0.00432732
1.148	-0.00416093
1.135	-0.00430835
1.122	-0.00411341
1.109	-0.00401677
1.096	-0.00395125
1.083	-0.00397301
1.07	-0.00388200
1.057	-0.00379584
1.044	-0.00369706
1.031	-0.00359847
1.018	-0.00351299
1.005	-0.00340236
0.992	-0.00337158
0.979	-0.00339281
0.966	-0.00326509
0.953	-0.00322623
0.94	-0.00317403
0.927	-0.00309816
0.914	-0.00288204
0.901	-0.00296678
0.888	-0.00280284
0.875	-0.00275364
0.862	-0.00264268
0.849	-0.00251608
0.836	-0.00257184
0.823	-0.00251985
0.81	-0.00246480
0.797	-0.00241962
0.784	-0.00232950
0.771	-0.00231230
0.758	-0.00221564
0.745	-0.00219584
0.732	-0.00211594
0.719	-0.00205125
0.706	-0.00199092
0.693	-0.00193584
0.68	-0.00186259
0.667	-0.00181322
0.654	-0.00172527
0.641	-0.00166629
0.628	-0.00159665
0.615	-0.00154333
0.602	-0.00145760
0.589	-0.00141026
0.576	-0.00134812
0.563	-0.00128693
0.55	-0.00121779
0.537	-0.00116421
0.524	-0.00108597
0.511	-0.00105856
0.498	-0.00100727
0.485	-0.00095987
0.472	-0.00089916
0.459	-0.00082747
0.446	-0.00076513
0.433	-0.00071576
0.42	-0.00066139
0.407	-0.00060855
0.394	-0.00056407
0.381	-0.00051178
0.368	-0.00046071
0.355	-0.00040655
0.342	-0.00035524
0.329	-0.00030646
0.316	-0.00025668
0.303	-0.00020721
0.29	-0.00015686
0.277	-0.00010646
0.264	-0.00005246
0.251	-0.00000220
0.238	0.00004632
0.225	0.00009769
0.212	0.00014966
0.199	0.00019905
0.186	0.00024986
0.173	0.00030120
0.16	0.00034766
0.147	0.00039712
0.134	0.00044557
0.121	0.00049510
0.108	0.00054506
0.09500000	0.00059417
0.08200000	0.00064316
0.06900000	0.00069152
0.05600000	0.00073994
0.04300000	0.00078846
0.03000000	0.00083731
0.01700000	0.00088566
0.00400000	0.00093372
-0.00900000	0.00098230
-0.02200000	0.00102958
-0.03500000	0.00107237
-0.04800000	0.00112276
-0.06100000	0.00117282
-0.07400000	0.00122209
-0.08700000	0.00127158
-0.1	0.00132085

File: A3-5-A_ITO+SnO2+PVSK+C6Br+Spiro+Carbon (Air quench) 2024-06-04 15-25-28.txt
Device Id	Operator	Recipe
A3-5-A_ITO+SnO2+PVSK+C6Br+Spiro+Carbon (Antisolvent)	Unknown	Jacob PVSKT _ 0.077cm^2 (nature recipe).IV

Sample Area	Irradiance	Pre sweep delay	Bias Direction	Max Reverse Bias	Max Forward Bias	Num Sweep Points	Dwell Time	Current Limit	PVIV 10A I-AMP	Average	Dark Current	Rshunt V-Lo	Rshunt V-Hi
0.077170	1.0000	0.5000	0	-0.1000	1.2000	101	10	130	0	1	0	-0.6000	-0.1000

Voc V	Isc A	Jsc mA/cm2	Imax A	Vmax V	Pmax mW	Fill Factor	Efficiency	R at Voc	R at Isc	Power W	RShunt ohms	Cell Temp start	Cell Temp end	Exposure	Time	Date
0.124172	0.00089326	11.5752	0.00045275	0.06176368	0.02796334	25.2108	0.3624	135.114	144.698	0.00005629	NaN	NaN	NaN	8.359	15:25:28	06/04/2024

Vmeas	Imeas
1.2	-0.00938490
1.187	-0.00927855
1.174	-0.00895130
1.161	-0.00868026
1.148	-0.00878489
1.135	-0.00890777
1.122	-0.00883131
1.109	-0.00867008
1.096	-0.00830623
1.083	-0.00820178
1.07	-0.00811395
1.057	-0.00799631
1.044	-0.00785876
1.031	-0.00777580
1.018	-0.00758367
1.005	-0.00742030
0.992	-0.00725995
0.979	-0.00706463
0.966	-0.00697050
0.953	-0.00682732
0.94	-0.00672023
0.927	-0.00666728
0.914	-0.00655187
0.901	-0.00643984
0.888	-0.00632966
0.875	-0.00621580
0.862	-0.00609178
0.849	-0.00593005
0.836	-0.00581205
0.823	-0.00568450
0.81	-0.00556226
0.797	-0.00541512
0.784	-0.00529250
0.771	-0.00538982
0.758	-0.00506964
0.745	-0.00495473
0.732	-0.00484466
0.719	-0.00472106
0.706	-0.00478096
0.693	-0.00468119
0.68	-0.00438870
0.667	-0.00427154
0.654	-0.00415485
0.641	-0.00404600
0.628	-0.00393493
0.615	-0.00382880
0.602	-0.00372418
0.589	-0.00362080
0.576	-0.00350749
0.563	-0.00354740
0.55	-0.00339901
0.537	-0.00330534
0.524	-0.00310585
0.511	-0.00299892
0.498	-0.00299930
0.485	-0.00288488
0.472	-0.00277487
0.459	-0.00266704
0.446	-0.00255006
0.433	-0.00236835
0.42	-0.00226121
0.407	-0.00214016
0.394	-0.00204073
0.381	-0.00194182
0.368	-0.00183799
0.355	-0.00173423
0.342	-0.00162270
0.329	-0.00152426
0.316	-0.00142840
0.303	-0.00132833
0.29	-0.00122533
0.277	-0.00113589
0.264	-0.00104053
0.251	-0.00094614
0.238	-0.00085132
0.225	-0.00075454
0.212	-0.00065674
0.199	-0.00055673
0.186	-0.00045952
0.173	-0.00036201
0.16	-0.00026448
0.147	-0.00016841
0.134	-0.00007274
0.121	0.00002348
0.108	0.00012315
0.09500000	0.00021760
0.08200000	0.00031097
0.06900000	0.00040054
0.05600000	0.00049553
0.04300000	0.00059659
0.03000000	0.00068898
0.01700000	0.00077850
0.00400000	0.00086562
-0.00900000	0.00095546
-0.02200000	0.00104515
-0.03500000	0.00113023
-0.04800000	0.00122247
-0.06100000	0.00131358
-0.07400000	0.00140398
-0.08700000	0.00149494
-0.1	0.00158287

File: A3-5-B_ITO+SnO2+PVSK+C6Br+Spiro+Carbon (Air quench) 2024-06-04 15-25-52.txt
Device Id	Operator	Recipe
A3-5-B_ITO+SnO2+PVSK+C6Br+Spiro+Carbon (Antisolvent)	Unknown	Jacob PVSKT _ 0.077cm^2 (nature recipe).IV

Sample Area	Irradiance	Pre sweep delay	Bias Direction	Max Reverse Bias	Max Forward Bias	Num Sweep Points	Dwell Time	Current Limit	PVIV 10A I-AMP	Average	Dark Current	Rshunt V-Lo	Rshunt V-Hi
0.077170	1.0000	0.5000	0	-0.1000	1.2000	101	10	130	0	1	0	-0.6000	-0.1000

Voc V	Isc A	Jsc mA/cm2	Imax A	Vmax V	Pmax mW	Fill Factor	Efficiency	R at Voc	R at Isc	Power W	RShunt ohms	Cell Temp start	Cell Temp end	Exposure	Time	Date
0.214126	0.00109143	14.1431	0.00055496	0.106729	0.05923069	25.3445	0.7675	189.796	200.484	0.00011793	NaN	NaN	NaN	8.359	15:25:52	06/04/2024

Vmeas	Imeas
1.2	-0.00548840
1.187	-0.00530037
1.174	-0.00510100
1.161	-0.00511922
1.148	-0.00499313
1.135	-0.00488566
1.122	-0.00487903
1.109	-0.00466680
1.096	-0.00476084
1.083	-0.00468596
1.07	-0.00459609
1.057	-0.00452116
1.044	-0.00450493
1.031	-0.00453099
1.018	-0.00481348
1.005	-0.00475271
0.992	-0.00469101
0.979	-0.00459983
0.966	-0.00451167
0.953	-0.00441446
0.94	-0.00432798
0.927	-0.00421064
0.914	-0.00412885
0.901	-0.00405331
0.888	-0.00396818
0.875	-0.00388564
0.862	-0.00380021
0.849	-0.00371330
0.836	-0.00362912
0.823	-0.00354499
0.81	-0.00346475
0.797	-0.00337443
0.784	-0.00329778
0.771	-0.00320955
0.758	-0.00311892
0.745	-0.00303506
0.732	-0.00296458
0.719	-0.00286809
0.706	-0.00278756
0.693	-0.00271549
0.68	-0.00263162
0.667	-0.00253617
0.654	-0.00246208
0.641	-0.00239153
0.628	-0.00231904
0.615	-0.00224370
0.602	-0.00216343
0.589	-0.00208571
0.576	-0.00201160
0.563	-0.00194089
0.55	-0.00186035
0.537	-0.00176572
0.524	-0.00170441
0.511	-0.00163133
0.498	-0.00155178
0.485	-0.00147299
0.472	-0.00139558
0.459	-0.00132179
0.446	-0.00125524
0.433	-0.00118148
0.42	-0.00110948
0.407	-0.00103801
0.394	-0.00097010
0.381	-0.00089601
0.368	-0.00082308
0.355	-0.00075132
0.342	-0.00068010
0.329	-0.00060893
0.316	-0.00054142
0.303	-0.00047051
0.29	-0.00040229
0.277	-0.00033408
0.264	-0.00026253
0.251	-0.00019405
0.238	-0.00012606
0.225	-0.00005733
0.212	0.00001128
0.199	0.00007966
0.186	0.00015010
0.173	0.00021769
0.16	0.00028300
0.147	0.00034952
0.134	0.00041651
0.121	0.00048123
0.108	0.00054835
0.09500000	0.00061393
0.08200000	0.00067913
0.06900000	0.00074552
0.05600000	0.00081039
0.04300000	0.00087460
0.03000000	0.00094093
0.01700000	0.00100597
0.00400000	0.00107147
-0.00900000	0.00113632
-0.02200000	0.00119965
-0.03500000	0.00126406
-0.04800000	0.00132807
-0.06100000	0.00139167
-0.07400000	0.00145529
-0.08700000	0.00151919
-0.1	0.00158253

File: A3-5-C_ITO+SnO2+PVSK+C6Br+Spiro+Carbon (Air quench) 2024-06-04 15-26-14.txt
Device Id	Operator	Recipe
A3-5-C_ITO+SnO2+PVSK+C6Br+Spiro+Carbon (Antisolvent)	Unknown	Jacob PVSKT _ 0.077cm^2 (nature recipe).IV

Sample Area	Irradiance	Pre sweep delay	Bias Direction	Max Reverse Bias	Max Forward Bias	Num Sweep Points	Dwell Time	Current Limit	PVIV 10A I-AMP	Average	Dark Current	Rshunt V-Lo	Rshunt V-Hi
0.077170	1.0000	0.5000	0	-0.1000	1.2000	101	10	130	0	1	0	-0.6000	-0.1000

Voc V	Isc A	Jsc mA/cm2	Imax A	Vmax V	Pmax mW	Fill Factor	Efficiency	R at Voc	R at Isc	Power W	RShunt ohms	Cell Temp start	Cell Temp end	Exposure	Time	Date
0.18799	0.00107484	13.9282	0.00058153	0.09482793	0.05514575	27.2919	0.7146	153.599	211.399	0.00010641	NaN	NaN	NaN	8.375	15:26:14	06/04/2024

Vmeas	Imeas
1.2	-0.00416587
1.187	-0.00366890
1.174	-0.00391404
1.161	-0.00423685
1.148	-0.00439650
1.135	-0.00329722
1.122	-0.00320083
1.109	-0.00309273
1.096	-0.00538346
1.083	-0.00532493
1.07	-0.00559264
1.057	-0.00550239
1.044	-0.00502770
1.031	-0.00559570
1.018	-0.00535785
1.005	-0.00486641
0.992	-0.00514761
0.979	-0.00501211
0.966	-0.00448295
0.953	-0.00439707
0.94	-0.00464042
0.927	-0.00470930
0.914	-0.00493651
0.901	-0.00490304
0.888	-0.00485624
0.875	-0.00457620
0.862	-0.00355858
0.849	-0.00400009
0.836	-0.00455396
0.823	-0.00460830
0.81	-0.00456692
0.797	-0.00447940
0.784	-0.00435390
0.771	-0.00421654
0.758	-0.00427626
0.745	-0.00413500
0.732	-0.00386343
0.719	-0.00393512
0.706	-0.00385913
0.693	-0.00372069
0.68	-0.00308835
0.667	-0.00274751
0.654	-0.00303385
0.641	-0.00296981
0.628	-0.00297269
0.615	-0.00284641
0.602	-0.00272876
0.589	-0.00287546
0.576	-0.00278264
0.563	-0.00268418
0.55	-0.00256914
0.537	-0.00248119
0.524	-0.00238114
0.511	-0.00225792
0.498	-0.00217951
0.485	-0.00207465
0.472	-0.00197984
0.459	-0.00186061
0.446	-0.00180196
0.433	-0.00165851
0.42	-0.00159745
0.407	-0.00147073
0.394	-0.00140426
0.381	-0.00126599
0.368	-0.00118343
0.355	-0.00110438
0.342	-0.00100198
0.329	-0.00090112
0.316	-0.00083638
0.303	-0.00074282
0.29	-0.00064022
0.277	-0.00056713
0.264	-0.00049364
0.251	-0.00040205
0.238	-0.00033302
0.225	-0.00024437
0.212	-0.00016584
0.199	-0.00007579
0.186	0.00002297
0.173	0.00009169
0.16	0.00018657
0.147	0.00027242
0.134	0.00034741
0.121	0.00042309
0.108	0.00049683
0.09500000	0.00058048
0.08200000	0.00064804
0.06900000	0.00071737
0.05600000	0.00078768
0.04300000	0.00085541
0.03000000	0.00092069
0.01700000	0.00098754
0.00400000	0.00105591
-0.00900000	0.00111741
-0.02200000	0.00117677
-0.03500000	0.00123557
-0.04800000	0.00129144
-0.06100000	0.00134636
-0.07400000	0.00139947
-0.08700000	0.00145119
-0.1	0.00150110

File: A3-5-D_ITO+SnO2+PVSK+C6Br+Spiro+Carbon (Air quench) 2024-06-04 15-28-24.txt
Device Id	Operator	Recipe
A3-5-D_ITO+SnO2+PVSK+C6Br+Spiro+Carbon (Antisolvent)	Unknown	Jacob PVSKT _ 0.077cm^2 (nature recipe).IV

Sample Area	Irradiance	Pre sweep delay	Bias Direction	Max Reverse Bias	Max Forward Bias	Num Sweep Points	Dwell Time	Current Limit	PVIV 10A I-AMP	Average	Dark Current	Rshunt V-Lo	Rshunt V-Hi
0.077170	1.0000	0.5000	0	-0.1000	1.2000	101	10	130	0	1	0	-0.6000	-0.1000

Voc V	Isc A	Jsc mA/cm2	Imax A	Vmax V	Pmax mW	Fill Factor	Efficiency	R at Voc	R at Isc	Power W	RShunt ohms	Cell Temp start	Cell Temp end	Exposure	Time	Date
0.192204	0.00123046	15.9448	0.00062225	0.09495353	0.05908486	24.9831	0.7656	191.858	160.531	0.00011762	NaN	NaN	NaN	8.344	15:28:24	06/04/2024

Vmeas	Imeas
1.2	-0.00923461
1.187	-0.00888673
1.174	-0.00863109
1.161	-0.00837076
1.148	-0.00827828
1.135	-0.00828770
1.122	-0.00798889
1.109	-0.00797514
1.096	-0.00786435
1.083	-0.00779045
1.07	-0.00748524
1.057	-0.00742837
1.044	-0.00712797
1.031	-0.00700527
1.018	-0.00685461
1.005	-0.00668400
0.992	-0.00655571
0.979	-0.00642457
0.966	-0.00633634
0.953	-0.00625394
0.94	-0.00612187
0.927	-0.00588711
0.914	-0.00589195
0.901	-0.00576519
0.888	-0.00564078
0.875	-0.00548379
0.862	-0.00535115
0.849	-0.00522365
0.836	-0.00502532
0.823	-0.00492204
0.81	-0.00479325
0.797	-0.00467741
0.784	-0.00455736
0.771	-0.00445652
0.758	-0.00432182
0.745	-0.00419473
0.732	-0.00403678
0.719	-0.00393182
0.706	-0.00384465
0.693	-0.00466320
0.68	-0.00463650
0.667	-0.00453239
0.654	-0.00431667
0.641	-0.00328500
0.628	-0.00317567
0.615	-0.00307353
0.602	-0.00296255
0.589	-0.00285382
0.576	-0.00276424
0.563	-0.00265002
0.55	-0.00254730
0.537	-0.00245747
0.524	-0.00236635
0.511	-0.00227925
0.498	-0.00219223
0.485	-0.00208711
0.472	-0.00198360
0.459	-0.00187840
0.446	-0.00177479
0.433	-0.00168667
0.42	-0.00158133
0.407	-0.00149159
0.394	-0.00138634
0.381	-0.00128898
0.368	-0.00119425
0.355	-0.00111081
0.342	-0.00101536
0.329	-0.00092900
0.316	-0.00083789
0.303	-0.00073841
0.29	-0.00064430
0.277	-0.00055554
0.264	-0.00046598
0.251	-0.00037643
0.238	-0.00029006
0.225	-0.00020343
0.212	-0.00011488
0.199	-0.00002787
0.186	0.00002044
0.173	0.00010444
0.16	0.00019164
0.147	0.00027964
0.134	0.00036603
0.121	0.00045142
0.108	0.00053694
0.09500000	0.00062195
0.08200000	0.00070776
0.06900000	0.00079204
0.05600000	0.00087626
0.04300000	0.00096053
0.03000000	0.00104207
0.01700000	0.00112478
0.00400000	0.00120554
-0.00900000	0.00128652
-0.02200000	0.00136516
-0.03500000	0.00144389
-0.04800000	0.00152152
-0.06100000	0.00159673
-0.07400000	0.00166994
-0.08700000	0.00174347
-0.1	0.00181466

File: A3-5-E_ITO+SnO2+PVSK+C6Br+Spiro+Carbon (Air quench) 2024-06-04 15-28-46.txt
Device Id	Operator	Recipe
A3-5-E_ITO+SnO2+PVSK+C6Br+Spiro+Carbon (Antisolvent)	Unknown	Jacob PVSKT _ 0.077cm^2 (nature recipe).IV

Sample Area	Irradiance	Pre sweep delay	Bias Direction	Max Reverse Bias	Max Forward Bias	Num Sweep Points	Dwell Time	Current Limit	PVIV 10A I-AMP	Average	Dark Current	Rshunt V-Lo	Rshunt V-Hi
0.077170	1.0000	0.5000	0	-0.1000	1.2000	101	10	130	0	1	0	-0.6000	-0.1000

Voc V	Isc A	Jsc mA/cm2	Imax A	Vmax V	Pmax mW	Fill Factor	Efficiency	R at Voc	R at Isc	Power W	RShunt ohms	Cell Temp start	Cell Temp end	Exposure	Time	Date
0.08135895	0.00098092	12.7112	0.00049665	0.04295481	0.02133339	26.7313	0.2764	63.9241	87.581	0.00004202	NaN	NaN	NaN	8.359	15:28:46	06/04/2024

Vmeas	Imeas
1.2	-0.02066488
1.187	-0.02030163
1.174	-0.02006284
1.161	-0.01986709
1.148	-0.01976257
1.135	-0.01948635
1.122	-0.01934384
1.109	-0.01913766
1.096	-0.01888515
1.083	-0.01866818
1.07	-0.01835665
1.057	-0.01823628
1.044	-0.01808201
1.031	-0.01753227
1.018	-0.01716123
1.005	-0.01684484
0.992	-0.01658707
0.979	-0.01629986
0.966	-0.01616240
0.953	-0.01617206
0.94	-0.01557030
0.927	-0.01542091
0.914	-0.01503410
0.901	-0.01477156
0.888	-0.01456276
0.875	-0.01431833
0.862	-0.01397968
0.849	-0.01372688
0.836	-0.01344650
0.823	-0.01326260
0.81	-0.01299991
0.797	-0.01299005
0.784	-0.01279269
0.771	-0.01247843
0.758	-0.01223008
0.745	-0.01194996
0.732	-0.01165651
0.719	-0.01141654
0.706	-0.01115781
0.693	-0.01089865
0.68	-0.01065193
0.667	-0.01038161
0.654	-0.01011164
0.641	-0.00987826
0.628	-0.00960070
0.615	-0.00927874
0.602	-0.00901794
0.589	-0.00877815
0.576	-0.00853322
0.563	-0.00830486
0.55	-0.00805255
0.537	-0.00778657
0.524	-0.00753258
0.511	-0.00728238
0.498	-0.00702346
0.485	-0.00677266
0.472	-0.00650073
0.459	-0.00627819
0.446	-0.00602501
0.433	-0.00580856
0.42	-0.00555684
0.407	-0.00532424
0.394	-0.00506675
0.381	-0.00484440
0.368	-0.00460265
0.355	-0.00435523
0.342	-0.00411947
0.329	-0.00388547
0.316	-0.00367718
0.303	-0.00345992
0.29	-0.00323178
0.277	-0.00303056
0.264	-0.00281139
0.251	-0.00260134
0.238	-0.00239447
0.225	-0.00216861
0.212	-0.00195523
0.199	-0.00174811
0.186	-0.00154994
0.173	-0.00135210
0.16	-0.00116013
0.147	-0.00094934
0.134	-0.00076735
0.121	-0.00057514
0.108	-0.00039051
0.09500000	-0.00021061
0.08200000	-0.00001003
0.06900000	0.00019334
0.05600000	0.00034582
0.04300000	0.00049612
0.03000000	0.00064742
0.01700000	0.00079212
0.00400000	0.00093525
-0.00900000	0.00108368
-0.02200000	0.00120545
-0.03500000	0.00132001
-0.04800000	0.00143081
-0.06100000	0.00153849
-0.07400000	0.00163214
-0.08700000	0.00172359
-0.1	0.00181459

File: A3-6-A_ITO+SnO2+PVSK+C6Br+Spiro+Carbon (Air quench) 2024-06-04 15-34-41.txt
Device Id	Operator	Recipe
A3-6-A_ITO+SnO2+PVSK+C6Br+Spiro+Carbon (Air quench)	Unknown	Jacob PVSKT _ 0.077cm^2 (nature recipe).IV

Sample Area	Irradiance	Pre sweep delay	Bias Direction	Max Reverse Bias	Max Forward Bias	Num Sweep Points	Dwell Time	Current Limit	PVIV 10A I-AMP	Average	Dark Current	Rshunt V-Lo	Rshunt V-Hi
0.077170	1.0000	0.5000	0	-0.1000	1.2000	101	10	130	0	1	0	-0.6000	-0.1000

Voc V	Isc A	Jsc mA/cm2	Imax A	Vmax V	Pmax mW	Fill Factor	Efficiency	R at Voc	R at Isc	Power W	RShunt ohms	Cell Temp start	Cell Temp end	Exposure	Time	Date
0.146603	0.00098669	12.786	0.00049854	0.07376162	0.03677309	25.4217	0.4765	134.59	152.387	0.00007338	NaN	NaN	NaN	8.562	15:34:41	06/04/2024

Vmeas	Imeas
1.2	-0.00401431
1.187	-0.00913987
1.174	-0.00891473
1.161	-0.00840674
1.148	-0.00851141
1.135	-0.00834614
1.122	-0.00812171
1.109	-0.00883555
1.096	-0.00881830
1.083	-0.00859828
1.07	-0.00772508
1.057	-0.00804709
1.044	-0.00811210
1.031	-0.00770120
1.018	-0.00668990
1.005	-0.00692316
0.992	-0.00651784
0.979	-0.00627677
0.966	-0.00326861
0.953	-0.00629629
0.94	-0.00627345
0.927	-0.00621990
0.914	-0.00576963
0.901	-0.00553580
0.888	-0.00478864
0.875	-0.00515350
0.862	-0.00447584
0.849	-0.00469553
0.836	-0.00439196
0.823	-0.00457104
0.81	-0.00523039
0.797	-0.00481591
0.784	-0.00517304
0.771	-0.00517800
0.758	-0.00476474
0.745	-0.00502844
0.732	-0.00495202
0.719	-0.00485128
0.706	-0.00470996
0.693	-0.00461166
0.68	-0.00447545
0.667	-0.00431300
0.654	-0.00420034
0.641	-0.00409457
0.628	-0.00394947
0.615	-0.00384934
0.602	-0.00372630
0.589	-0.00360786
0.576	-0.00350169
0.563	-0.00327350
0.55	-0.00311899
0.537	-0.00300707
0.524	-0.00292592
0.511	-0.00285102
0.498	-0.00266370
0.485	-0.00257882
0.472	-0.00245184
0.459	-0.00233427
0.446	-0.00227158
0.433	-0.00216836
0.42	-0.00203688
0.407	-0.00190596
0.394	-0.00182747
0.381	-0.00171269
0.368	-0.00158897
0.355	-0.00147084
0.342	-0.00139899
0.329	-0.00129365
0.316	-0.00121073
0.303	-0.00112019
0.29	-0.00101581
0.277	-0.00092570
0.264	-0.00083440
0.251	-0.00074457
0.238	-0.00064996
0.225	-0.00055722
0.212	-0.00046382
0.199	-0.00037146
0.186	-0.00028062
0.173	-0.00019133
0.16	-0.00010029
0.147	-0.00000142
0.134	0.00009286
0.121	0.00018235
0.108	0.00027090
0.09500000	0.00035821
0.08200000	0.00044315
0.06900000	0.00053076
0.05600000	0.00061814
0.04300000	0.00070459
0.03000000	0.00078960
0.01700000	0.00087519
0.00400000	0.00096044
-0.00900000	0.00104575
-0.02200000	0.00107262
-0.03500000	0.00117232
-0.04800000	0.00127046
-0.06100000	0.00136873
-0.07400000	0.00146386
-0.08700000	0.00155971
-0.1	0.00165358

File: A3-6-B_ITO+SnO2+PVSK+C6Br+Spiro+Carbon (Air quench) 2024-06-04 15-35-21.txt
Device Id	Operator	Recipe
A3-6-B_ITO+SnO2+PVSK+C6Br+Spiro+Carbon (Air quench)	Unknown	Jacob PVSKT _ 0.077cm^2 (nature recipe).IV

Sample Area	Irradiance	Pre sweep delay	Bias Direction	Max Reverse Bias	Max Forward Bias	Num Sweep Points	Dwell Time	Current Limit	PVIV 10A I-AMP	Average	Dark Current	Rshunt V-Lo	Rshunt V-Hi
0.077170	1.0000	0.5000	0	-0.1000	1.2000	101	10	130	0	1	0	-0.6000	-0.1000

Voc V	Isc A	Jsc mA/cm2	Imax A	Vmax V	Pmax mW	Fill Factor	Efficiency	R at Voc	R at Isc	Power W	RShunt ohms	Cell Temp start	Cell Temp end	Exposure	Time	Date
0.157261	0.00113392	14.6939	0.00057537	0.07867507	0.04526764	25.3853	0.5866	139.607	150.079	0.00009014	NaN	NaN	NaN	8.359	15:35:21	06/04/2024

Vmeas	Imeas
1.2	-0.00535847
1.187	-0.00524836
1.174	-0.00511145
1.161	-0.00487546
1.148	-0.00480550
1.135	-0.00862237
1.122	-0.00994593
1.109	-0.00946476
1.096	-0.00948211
1.083	-0.00909050
1.07	-0.00896882
1.057	-0.00846378
1.044	-0.00856964
1.031	-0.00808365
1.018	-0.00874566
1.005	-0.00802303
0.992	-0.00812005
0.979	-0.00772121
0.966	-0.00719542
0.953	-0.00708575
0.94	-0.00723864
0.927	-0.00705956
0.914	-0.00695186
0.901	-0.00657549
0.888	-0.00656806
0.875	-0.00645715
0.862	-0.00620010
0.849	-0.00597298
0.836	-0.00575063
0.823	-0.00559845
0.81	-0.00529300
0.797	-0.00521374
0.784	-0.00509303
0.771	-0.00501925
0.758	-0.00497042
0.745	-0.00480010
0.732	-0.00465492
0.719	-0.00453234
0.706	-0.00437306
0.693	-0.00423492
0.68	-0.00406999
0.667	-0.00495235
0.654	-0.00475003
0.641	-0.00458263
0.628	-0.00433749
0.615	-0.00420882
0.602	-0.00402290
0.589	-0.00391177
0.576	-0.00386926
0.563	-0.00363071
0.55	-0.00356055
0.537	-0.00340618
0.524	-0.00324209
0.511	-0.00304573
0.498	-0.00300676
0.485	-0.00284974
0.472	-0.00259428
0.459	-0.00252939
0.446	-0.00240127
0.433	-0.00231169
0.42	-0.00223071
0.407	-0.00207244
0.394	-0.00192285
0.381	-0.00181025
0.368	-0.00170013
0.355	-0.00165972
0.342	-0.00152114
0.329	-0.00142301
0.316	-0.00129423
0.303	-0.00119389
0.29	-0.00106102
0.277	-0.00094133
0.264	-0.00083824
0.251	-0.00073967
0.238	-0.00063106
0.225	-0.00052708
0.212	-0.00042575
0.199	-0.00032519
0.186	-0.00022358
0.173	-0.00012414
0.16	-0.00001962
0.147	0.00007350
0.134	0.00017548
0.121	0.00027134
0.108	0.00036441
0.09500000	0.00045674
0.08200000	0.00055108
0.06900000	0.00064616
0.05600000	0.00073794
0.04300000	0.00083266
0.03000000	0.00092187
0.01700000	0.00101210
0.00400000	0.00110727
-0.00900000	0.00119389
-0.02200000	0.00128077
-0.03500000	0.00136591
-0.04800000	0.00145136
-0.06100000	0.00153538
-0.07400000	0.00161802
-0.08700000	0.00169919
-0.1	0.00177796

File: A3-6-C_ITO+SnO2+PVSK+C6Br+Spiro+Carbon (Air quench) 2024-06-04 15-35-50.txt
Device Id	Operator	Recipe
A3-6-C_ITO+SnO2+PVSK+C6Br+Spiro+Carbon (Air quench)	Unknown	Jacob PVSKT _ 0.077cm^2 (nature recipe).IV

Sample Area	Irradiance	Pre sweep delay	Bias Direction	Max Reverse Bias	Max Forward Bias	Num Sweep Points	Dwell Time	Current Limit	PVIV 10A I-AMP	Average	Dark Current	Rshunt V-Lo	Rshunt V-Hi
0.077170	1.0000	0.5000	0	-0.1000	1.2000	101	10	130	0	1	0	-0.6000	-0.1000

Voc V	Isc A	Jsc mA/cm2	Imax A	Vmax V	Pmax mW	Fill Factor	Efficiency	R at Voc	R at Isc	Power W	RShunt ohms	Cell Temp start	Cell Temp end	Exposure	Time	Date
0.05800220	0.00072035	9.3346	0.00000000	NaN	NaN	NaN	NaN	70.8595	85.058	0.00002131	NaN	NaN	NaN	8.344	15:35:50	06/04/2024

Vmeas	Imeas
1.2	-0.01181219
1.187	-0.01455468
1.174	-0.01827222
1.161	-0.01769349
1.148	-0.01730187
1.135	-0.01660027
1.122	-0.01638578
1.109	-0.01649300
1.096	-0.01527176
1.083	-0.01482668
1.07	-0.01445862
1.057	-0.01469397
1.044	-0.01433208
1.031	-0.01442288
1.018	-0.01436088
1.005	-0.01414216
0.992	-0.01393687
0.979	-0.01383851
0.966	-0.01347040
0.953	-0.01331186
0.94	-0.01302547
0.927	-0.01289044
0.914	-0.01253109
0.901	-0.01248210
0.888	-0.01237716
0.875	-0.01201661
0.862	-0.01199591
0.849	-0.01209627
0.836	-0.01149750
0.823	-0.01133960
0.81	-0.01118789
0.797	-0.01085245
0.784	-0.01061810
0.771	-0.01036385
0.758	-0.01021599
0.745	-0.00997667
0.732	-0.00978396
0.719	-0.00955870
0.706	-0.00931768
0.693	-0.00913904
0.68	-0.00894566
0.667	-0.00872981
0.654	-0.00847029
0.641	-0.00826971
0.628	-0.00810422
0.615	-0.00789994
0.602	-0.00767140
0.589	-0.00747858
0.576	-0.00722728
0.563	-0.00708900
0.55	-0.00684576
0.537	-0.00664830
0.524	-0.00642536
0.511	-0.00622977
0.498	-0.00601204
0.485	-0.00583149
0.472	-0.00562108
0.459	-0.00541361
0.446	-0.00525123
0.433	-0.00507381
0.42	-0.00488093
0.407	-0.00469244
0.394	-0.00450591
0.381	-0.00432975
0.368	-0.00414963
0.355	-0.00391454
0.342	-0.00375712
0.329	-0.00359434
0.316	-0.00341200
0.303	-0.00323724
0.29	-0.00306350
0.277	-0.00288332
0.264	-0.00270164
0.251	-0.00252979
0.238	-0.00235285
0.225	-0.00217032
0.212	-0.00200912
0.199	-0.00184096
0.186	-0.00167327
0.173	-0.00150032
0.16	-0.00132989
0.147	-0.00116316
0.134	-0.00099242
0.121	-0.00082406
0.108	-0.00065048
0.09500000	-0.00048657
0.08200000	-0.00032139
0.06900000	-0.00015521
0.05600000	0.00002826
0.04300000	0.00020265
0.03000000	0.00035657
0.01700000	0.00051242
0.00400000	0.00067332
-0.00900000	0.00082616
-0.02200000	0.00097532
-0.03500000	0.00110455
-0.04800000	0.00126919
-0.06100000	0.00142549
-0.07400000	0.00158015
-0.08700000	0.00173349
-0.1	0.00188701