Folder: YanLab/Data/IV_data/2024-05-02

Note: README.md
# YanLab
Projects for the Feng Yan Lab

File: A1-1_ITO+SnO2+PVSK+C6Br+Spiro+Carbon (Air Quench)  2024-04-18 20-16-15 2024-05-06 19-11-35.txt
Device Id	Operator	Recipe
A1-1_ITO+SnO2+PVSK+C6Br+Spiro+Carbon (Air Quench)  2024-04-18 20-16-15	Unknown	Jacob PVSKT _ 0.077cm^2 (nature recipe).IV

Sample Area	Irradiance	Pre sweep delay	Bias Direction	Max Reverse Bias	Max Forward Bias	Num Sweep Points	Dwell Time	Current Limit	PVIV 10A I-AMP	Average	Dark Current	Rshunt V-Lo	Rshunt V-Hi
0.077170	1.0000	0.5000	0	-0.1000	1.2000	101	10	130	0	1	0	-0.6000	-0.1000

Voc V	Isc A	Jsc mA/cm2	Imax A	Vmax V	Pmax mW	Fill Factor	Efficiency	R at Voc	R at Isc	Power W	RShunt ohms	Cell Temp start	Cell Temp end	Exposure	Time	Date
1.01801	0.00146359	18.9658	0.00099346	0.608357	0.60438	40.5637	7.8318	376.136	3374.370	0.00100442	NaN	-7.024	NaN	8.656	19:11:35	05/06/2024

Vmeas	Imeas
1.2	-0.00069647
1.187	-0.00069515
1.174	-0.00061126
1.161	-0.00052358
1.148	-0.00044379
1.135	-0.00038513
1.122	-0.00031393
1.109	-0.00026430
1.096	-0.00021833
1.083	-0.00017168
1.07	-0.00012955
1.057	-0.00008667
1.044	-0.00004794
1.031	-0.00002279
1.018	0.00001331
1.005	0.00004353
0.992	0.00007061
0.979	0.00010461
0.966	0.00013284
0.953	0.00016658
0.94	0.00019666
0.927	0.00022807
0.914	0.00025867
0.901	0.00029052
0.888	0.00032614
0.875	0.00035963
0.862	0.00039377
0.849	0.00042863
0.836	0.00046396
0.823	0.00050001
0.81	0.00053395
0.797	0.00056955
0.784	0.00060054
0.771	0.00063628
0.758	0.00066906
0.745	0.00070151
0.732	0.00073399
0.719	0.00076423
0.706	0.00079623
0.693	0.00082542
0.68	0.00085453
0.667	0.00088097
0.654	0.00090785
0.641	0.00093344
0.628	0.00095876
0.615	0.00098463
0.602	0.00100642
0.589	0.00102822
0.576	0.00104897
0.563	0.00104923
0.55	0.00107227
0.537	0.00109367
0.524	0.00111392
0.511	0.00113271
0.498	0.00115044
0.485	0.00116797
0.472	0.00118314
0.459	0.00119798
0.446	0.00121308
0.433	0.00122752
0.42	0.00124128
0.407	0.00125542
0.394	0.00126624
0.381	0.00127789
0.368	0.00128979
0.355	0.00130059
0.342	0.00131162
0.329	0.00132181
0.316	0.00133002
0.303	0.00133960
0.29	0.00134925
0.277	0.00135766
0.264	0.00136537
0.251	0.00137342
0.238	0.00138021
0.225	0.00138802
0.212	0.00139501
0.199	0.00140085
0.186	0.00140708
0.173	0.00141289
0.16	0.00141811
0.147	0.00142367
0.134	0.00142813
0.121	0.00143252
0.108	0.00143673
0.09500000	0.00144114
0.08200000	0.00144490
0.06900000	0.00144926
0.05600000	0.00145259
0.04300000	0.00145671
0.03000000	0.00145940
0.01700000	0.00146270
0.00400000	0.00146522
-0.00900000	0.00146814
-0.02200000	0.00147041
-0.03500000	0.00147289
-0.04800000	0.00147519
-0.06100000	0.00147815
-0.07400000	0.00147967
-0.08700000	0.00148161
-0.1	0.00148361

File: A1-2_ITO+SnO2+PVSK+C6Br+Spiro+Carbon (Air Quench)  2024-04-18 20-16-15 2024-05-06 19-13-18.txt
Device Id	Operator	Recipe
A1-2_ITO+SnO2+PVSK+C6Br+Spiro+Carbon (Air Quench)  2024-04-18 20-16-15	Unknown	Jacob PVSKT _ 0.077cm^2 (nature recipe).IV

Sample Area	Irradiance	Pre sweep delay	Bias Direction	Max Reverse Bias	Max Forward Bias	Num Sweep Points	Dwell Time	Current Limit	PVIV 10A I-AMP	Average	Dark Current	Rshunt V-Lo	Rshunt V-Hi
0.077170	1.0000	0.5000	0	-0.1000	1.2000	101	10	130	0	1	0	-0.6000	-0.1000

Voc V	Isc A	Jsc mA/cm2	Imax A	Vmax V	Pmax mW	Fill Factor	Efficiency	R at Voc	R at Isc	Power W	RShunt ohms	Cell Temp start	Cell Temp end	Exposure	Time	Date
1.07388	0.00157403	20.397	0.00104124	0.642541	0.669038	39.5806	8.6697	318.243	3375.832	0.00113707	NaN	NaN	NaN	8.500	19:13:18	05/06/2024

Vmeas	Imeas
1.2	-0.00054231
1.187	-0.00047047
1.174	-0.00039896
1.161	-0.00033048
1.148	-0.00026513
1.135	-0.00020468
1.122	-0.00014829
1.109	-0.00009592
1.096	-0.00004959
1.083	-0.00000552
1.07	0.00003673
1.057	0.00007297
1.044	0.00010840
1.031	0.00014257
1.018	0.00017501
1.005	0.00020656
0.992	0.00023757
0.979	0.00026837
0.966	0.00029957
0.953	0.00033124
0.94	0.00036282
0.927	0.00039476
0.914	0.00042742
0.901	0.00046032
0.888	0.00049323
0.875	0.00052637
0.862	0.00055935
0.849	0.00059263
0.836	0.00062556
0.823	0.00065836
0.81	0.00069070
0.797	0.00072242
0.784	0.00075366
0.771	0.00078445
0.758	0.00081438
0.745	0.00084325
0.732	0.00087225
0.719	0.00089999
0.706	0.00092321
0.693	0.00095180
0.68	0.00097758
0.667	0.00100296
0.654	0.00102714
0.641	0.00104945
0.628	0.00105790
0.615	0.00108085
0.602	0.00110364
0.589	0.00112525
0.576	0.00114606
0.563	0.00116594
0.55	0.00118531
0.537	0.00120426
0.524	0.00122222
0.511	0.00123980
0.498	0.00125694
0.485	0.00127280
0.472	0.00128824
0.459	0.00130379
0.446	0.00131883
0.433	0.00133217
0.42	0.00134646
0.407	0.00135957
0.394	0.00137243
0.381	0.00138565
0.368	0.00139745
0.355	0.00140882
0.342	0.00141981
0.329	0.00143032
0.316	0.00144084
0.303	0.00145033
0.29	0.00145985
0.277	0.00146889
0.264	0.00147663
0.251	0.00148536
0.238	0.00149239
0.225	0.00149995
0.212	0.00150639
0.199	0.00151338
0.186	0.00151935
0.173	0.00152500
0.16	0.00153025
0.147	0.00153522
0.134	0.00154026
0.121	0.00154449
0.108	0.00154876
0.09500000	0.00155294
0.08200000	0.00155633
0.06900000	0.00156042
0.05600000	0.00156376
0.04300000	0.00156680
0.03000000	0.00156935
0.01700000	0.00157251
0.00400000	0.00157495
-0.00900000	0.00158026
-0.02200000	0.00158071
-0.03500000	0.00158233
-0.04800000	0.00158512
-0.06100000	0.00158674
-0.07400000	0.00158910
-0.08700000	0.00159147
-0.1	0.00159311

File: A1-3_ITO+SnO2+PVSK+C6Br+Spiro+Carbon (Air Quench)  2024-04-18 20-16-15 2024-05-06 19-13-55.txt
Device Id	Operator	Recipe
A1-2_ITO+SnO2+PVSK+C6Br+Spiro+Carbon (Air Quench)  2024-04-18 20-16-15	Unknown	Jacob PVSKT _ 0.077cm^2 (nature recipe).IV

Sample Area	Irradiance	Pre sweep delay	Bias Direction	Max Reverse Bias	Max Forward Bias	Num Sweep Points	Dwell Time	Current Limit	PVIV 10A I-AMP	Average	Dark Current	Rshunt V-Lo	Rshunt V-Hi
0.077170	1.0000	0.5000	0	-0.1000	1.2000	101	10	130	0	1	0	-0.6000	-0.1000

Voc V	Isc A	Jsc mA/cm2	Imax A	Vmax V	Pmax mW	Fill Factor	Efficiency	R at Voc	R at Isc	Power W	RShunt ohms	Cell Temp start	Cell Temp end	Exposure	Time	Date
1.0613	0.00151764	19.6662	0.00100503	0.668999	0.672366	41.7445	8.7128	263.189	3903.867	0.00112627	NaN	NaN	NaN	8.297	19:13:55	05/06/2024

Vmeas	Imeas
1.2	-0.00066880
1.187	-0.00059936
1.174	-0.00052724
1.161	-0.00045497
1.148	-0.00038407
1.135	-0.00031547
1.122	-0.00024953
1.109	-0.00018704
1.096	-0.00012797
1.083	-0.00007130
1.07	-0.00001851
1.057	0.00003179
1.044	0.00007955
1.031	0.00012216
1.018	0.00016872
1.005	0.00021255
0.992	0.00025444
0.979	0.00029506
0.966	0.00033453
0.953	0.00037266
0.94	0.00040994
0.927	0.00044636
0.914	0.00048171
0.901	0.00051658
0.888	0.00055033
0.875	0.00058352
0.862	0.00061582
0.849	0.00064719
0.836	0.00067799
0.823	0.00070826
0.81	0.00073763
0.797	0.00076581
0.784	0.00079363
0.771	0.00082059
0.758	0.00084676
0.745	0.00087261
0.732	0.00089721
0.719	0.00092120
0.706	0.00094481
0.693	0.00096724
0.68	0.00098917
0.667	0.00101106
0.654	0.00103154
0.641	0.00105006
0.628	0.00105712
0.615	0.00107658
0.602	0.00109717
0.589	0.00111671
0.576	0.00113518
0.563	0.00115302
0.55	0.00117048
0.537	0.00118755
0.524	0.00120307
0.511	0.00121923
0.498	0.00123399
0.485	0.00124933
0.472	0.00126381
0.459	0.00127808
0.446	0.00129194
0.433	0.00130480
0.42	0.00131729
0.407	0.00132989
0.394	0.00134149
0.381	0.00135327
0.368	0.00136454
0.355	0.00137502
0.342	0.00138578
0.329	0.00139417
0.316	0.00140406
0.303	0.00141311
0.29	0.00142149
0.277	0.00142963
0.264	0.00143756
0.251	0.00144423
0.238	0.00145073
0.225	0.00145731
0.212	0.00146320
0.199	0.00146866
0.186	0.00147306
0.173	0.00147821
0.16	0.00148271
0.147	0.00148713
0.134	0.00149090
0.121	0.00149407
0.108	0.00149722
0.09500000	0.00150087
0.08200000	0.00150464
0.06900000	0.00150740
0.05600000	0.00150984
0.04300000	0.00151196
0.03000000	0.00151394
0.01700000	0.00151569
0.00400000	0.00151835
-0.00900000	0.00152079
-0.02200000	0.00152208
-0.03500000	0.00152424
-0.04800000	0.00152588
-0.06100000	0.00152737
-0.07400000	0.00152890
-0.08700000	0.00153063
-0.1	0.00153190

File: A1-4_ITO+SnO2+PVSK+C6Br+Spiro+Carbon (Air Quench)  2024-04-18 20-16-15 2024-05-06 19-24-12.txt
Device Id	Operator	Recipe
A1-4_ITO+SnO2+PVSK+C6Br+Spiro+Carbon (Air Quench)  2024-04-18 20-16-15	Unknown	Jacob PVSKT _ 0.077cm^2 (nature recipe).IV

Sample Area	Irradiance	Pre sweep delay	Bias Direction	Max Reverse Bias	Max Forward Bias	Num Sweep Points	Dwell Time	Current Limit	PVIV 10A I-AMP	Average	Dark Current	Rshunt V-Lo	Rshunt V-Hi
0.077170	1.0000	0.5000	0	-0.1000	1.2000	101	10	130	0	1	0	-0.6000	-0.1000

Voc V	Isc A	Jsc mA/cm2	Imax A	Vmax V	Pmax mW	Fill Factor	Efficiency	R at Voc	R at Isc	Power W	RShunt ohms	Cell Temp start	Cell Temp end	Exposure	Time	Date
1.07983	0.00138994	18.0114	0.00098361	0.650391	0.639729	42.6229	8.2899	301.986	4670.260	0.00105633	NaN	NaN	NaN	8.297	19:24:12	05/06/2024

Vmeas	Imeas
1.2	-0.00056447
1.187	-0.00048561
1.174	-0.00040678
1.161	-0.00033100
1.148	-0.00025960
1.135	-0.00019356
1.122	-0.00013312
1.109	-0.00007734
1.096	-0.00002827
1.083	0.00001651
1.07	0.00005698
1.057	0.00009424
1.044	0.00012810
1.031	0.00016263
1.018	0.00019593
1.005	0.00022793
0.992	0.00025948
0.979	0.00029074
0.966	0.00032208
0.953	0.00035350
0.94	0.00038520
0.927	0.00041655
0.914	0.00044795
0.901	0.00047943
0.888	0.00051047
0.875	0.00054145
0.862	0.00057185
0.849	0.00060210
0.836	0.00063131
0.823	0.00066030
0.81	0.00068866
0.797	0.00071576
0.784	0.00074312
0.771	0.00076979
0.758	0.00079568
0.745	0.00081986
0.732	0.00084505
0.719	0.00086853
0.706	0.00089144
0.693	0.00091404
0.68	0.00093598
0.667	0.00095686
0.654	0.00097763
0.641	0.00099792
0.628	0.00101704
0.615	0.00103633
0.602	0.00105019
0.589	0.00106392
0.576	0.00107936
0.563	0.00109625
0.55	0.00111300
0.537	0.00112928
0.524	0.00114406
0.511	0.00115952
0.498	0.00117366
0.485	0.00118717
0.472	0.00119981
0.459	0.00121258
0.446	0.00122465
0.433	0.00123536
0.42	0.00124562
0.407	0.00125528
0.394	0.00126458
0.381	0.00127289
0.368	0.00128132
0.355	0.00128961
0.342	0.00129668
0.329	0.00130255
0.316	0.00130952
0.303	0.00131520
0.29	0.00132073
0.277	0.00132616
0.264	0.00133131
0.251	0.00133544
0.238	0.00134006
0.225	0.00134364
0.212	0.00134746
0.199	0.00135093
0.186	0.00135478
0.173	0.00135776
0.16	0.00136098
0.147	0.00136385
0.134	0.00136692
0.121	0.00136965
0.108	0.00137164
0.09500000	0.00137447
0.08200000	0.00137676
0.06900000	0.00137927
0.05600000	0.00138093
0.04300000	0.00138345
0.03000000	0.00138559
0.01700000	0.00138713
0.00400000	0.00138930
-0.00900000	0.00139246
-0.02200000	0.00139328
-0.03500000	0.00139472
-0.04800000	0.00139749
-0.06100000	0.00139816
-0.07400000	0.00140007
-0.08700000	0.00140223
-0.1	0.00140368

File: A1-5_ITO+SnO2+PVSK+C6Br+Spiro+Carbon (Air Quench)  2024-04-18 20-16-15 2024-05-06 19-24-55.txt
Device Id	Operator	Recipe
A1-5_ITO+SnO2+PVSK+C6Br+Spiro+Carbon (Air Quench)  2024-04-18 20-16-15	Unknown	Jacob PVSKT _ 0.077cm^2 (nature recipe).IV

Sample Area	Irradiance	Pre sweep delay	Bias Direction	Max Reverse Bias	Max Forward Bias	Num Sweep Points	Dwell Time	Current Limit	PVIV 10A I-AMP	Average	Dark Current	Rshunt V-Lo	Rshunt V-Hi
0.077170	1.0000	0.5000	0	-0.1000	1.2000	101	10	130	0	1	0	-0.6000	-0.1000

Voc V	Isc A	Jsc mA/cm2	Imax A	Vmax V	Pmax mW	Fill Factor	Efficiency	R at Voc	R at Isc	Power W	RShunt ohms	Cell Temp start	Cell Temp end	Exposure	Time	Date
0.628011	0.00134087	17.3755	0.00072776	0.339753	0.24726	29.3630	3.2041	391.629	731.976	0.00046756	NaN	NaN	NaN	8.562	19:24:55	05/06/2024

Vmeas	Imeas
1.2	-0.00166941
1.187	-0.00156038
1.174	-0.00148944
1.161	-0.00144410
1.148	-0.00139896
1.135	-0.00133746
1.122	-0.00130085
1.109	-0.00126845
1.096	-0.00117788
1.083	-0.00108660
1.07	-0.00119848
1.057	-0.00121152
1.044	-0.00117614
1.031	-0.00115028
1.018	-0.00111487
1.005	-0.00109012
0.992	-0.00104301
0.979	-0.00100337
0.966	-0.00097071
0.953	-0.00093223
0.94	-0.00089905
0.927	-0.00086022
0.914	-0.00082375
0.901	-0.00078180
0.888	-0.00074448
0.875	-0.00071040
0.862	-0.00066813
0.849	-0.00062841
0.836	-0.00059108
0.823	-0.00054866
0.81	-0.00051386
0.797	-0.00046855
0.784	-0.00043192
0.771	-0.00039144
0.758	-0.00035743
0.745	-0.00031198
0.732	-0.00027061
0.719	-0.00023190
0.706	-0.00019288
0.693	-0.00015087
0.68	-0.00011331
0.667	-0.00009073
0.654	-0.00004764
0.641	-0.00006455
0.628	-0.00002103
0.615	0.00002520
0.602	0.00007151
0.589	0.00010458
0.576	0.00012931
0.563	0.00017292
0.55	0.00021114
0.537	0.00024957
0.524	0.00028169
0.511	0.00031444
0.498	0.00034745
0.485	0.00038362
0.472	0.00041688
0.459	0.00045089
0.446	0.00048285
0.433	0.00051507
0.42	0.00054543
0.407	0.00057606
0.394	0.00060774
0.381	0.00063898
0.368	0.00066619
0.355	0.00069417
0.342	0.00072322
0.329	0.00075146
0.316	0.00077792
0.303	0.00080611
0.29	0.00083435
0.277	0.00086026
0.264	0.00088745
0.251	0.00091253
0.238	0.00093773
0.225	0.00096347
0.212	0.00098778
0.199	0.00101462
0.186	0.00104569
0.173	0.00105820
0.16	0.00108086
0.147	0.00110486
0.134	0.00112858
0.121	0.00115076
0.108	0.00117266
0.09500000	0.00119515
0.08200000	0.00121665
0.06900000	0.00123855
0.05600000	0.00125938
0.04300000	0.00127946
0.03000000	0.00129907
0.01700000	0.00131802
0.00400000	0.00133795
-0.00900000	0.00135495
-0.02200000	0.00137217
-0.03500000	0.00138967
-0.04800000	0.00140553
-0.06100000	0.00142164
-0.07400000	0.00143629
-0.08700000	0.00145103
-0.1	0.00146469

File: A3-1_ITO+SnO2+PVSK+C6Br+Spiro+Carbon (Air Quench)  2024-04-18 20-16-15 2024-05-06 19-29-45.txt
Device Id	Operator	Recipe
A2-1_ITO+SnO2+PVSK+C6Br+Spiro+Carbon (Air Quench)  2024-04-18 20-16-15	Unknown	Jacob PVSKT _ 0.077cm^2 (nature recipe).IV

Sample Area	Irradiance	Pre sweep delay	Bias Direction	Max Reverse Bias	Max Forward Bias	Num Sweep Points	Dwell Time	Current Limit	PVIV 10A I-AMP	Average	Dark Current	Rshunt V-Lo	Rshunt V-Hi
0.077170	1.0000	0.5000	0	-0.1000	1.2000	101	10	130	0	1	0	-0.6000	-0.1000

Voc V	Isc A	Jsc mA/cm2	Imax A	Vmax V	Pmax mW	Fill Factor	Efficiency	R at Voc	R at Isc	Power W	RShunt ohms	Cell Temp start	Cell Temp end	Exposure	Time	Date
1.00558	0.00134970	17.4899	0.00093641	0.425593	0.398529	29.3633	5.1643	7262.85	1996.036	0.00051443	NaN	NaN	NaN	9.109	19:29:45	05/06/2024

Vmeas	Imeas
1.2	-0.00010500
1.187	-0.00006432
1.174	-0.00005464
1.161	-0.00004868
1.148	-0.00004506
1.135	-0.00002587
1.122	-0.00001868
1.109	-0.00001456
1.096	-0.00001076
1.083	-0.00000598
1.07	-0.00000700
1.057	-0.00000750
1.044	-0.00000212
1.031	-0.00000012
1.018	0.00000104
1.005	0.00000188
0.992	0.00000209
0.979	0.00000286
0.966	0.00000463
0.953	0.00000473
0.94	0.00000621
0.927	0.00000668
0.914	0.00000526
0.901	0.00000472
0.888	0.00002075
0.875	0.00002318
0.862	0.00002775
0.849	0.00002471
0.836	0.00010502
0.823	0.00011998
0.81	0.00004282
0.797	0.00004892
0.784	0.00001884
0.771	0.00000042
0.758	0.00000052
0.745	0.00000046
0.732	0.00000017
0.719	0.00000015
0.706	0.00000062
0.693	0.00000020
0.68	0.00000047
0.667	0.00000069
0.654	0.00000070
0.641	0.00000132
0.628	0.00000114
0.615	0.00000149
0.602	0.00000369
0.589	0.00000457
0.576	0.00000590
0.563	0.00000943
0.55	0.00001881
0.537	0.00003516
0.524	0.00002992
0.511	0.00002417
0.498	0.00006608
0.485	0.00009565
0.472	0.00021642
0.459	0.00066631
0.446	0.00078822
0.433	0.00090561
0.42	0.00094096
0.407	0.00090857
0.394	0.00088893
0.381	0.00086409
0.368	0.00082351
0.355	0.00089751
0.342	0.00095647
0.329	0.00091325
0.316	0.00099120
0.303	0.00107487
0.29	0.00092011
0.277	0.00071729
0.264	0.00118821
0.251	0.00113293
0.238	0.00104891
0.225	0.00120156
0.212	0.00111732
0.199	0.00111034
0.186	0.00111290
0.173	0.00114236
0.16	0.00110508
0.147	0.00116384
0.134	0.00126731
0.121	0.00121776
0.108	0.00119089
0.09500000	0.00126673
0.08200000	0.00128267
0.06900000	0.00133587
0.05600000	0.00138241
0.04300000	0.00132338
0.03000000	0.00132531
0.01700000	0.00134947
0.00400000	0.00131407
-0.00900000	0.00138007
-0.02200000	0.00134607
-0.03500000	0.00132762
-0.04800000	0.00139613
-0.06100000	0.00138377
-0.07400000	0.00137338
-0.08700000	0.00140438
-0.1	0.00140376

File: A3-2_ITO+SnO2+PVSK+C6Br+Spiro+Carbon (Air Quench)  2024-04-18 20-16-15 2024-05-06 19-30-35.txt
Device Id	Operator	Recipe
A2-2_ITO+SnO2+PVSK+C6Br+Spiro+Carbon (Air Quench)  2024-04-18 20-16-15	Unknown	Jacob PVSKT _ 0.077cm^2 (nature recipe).IV

Sample Area	Irradiance	Pre sweep delay	Bias Direction	Max Reverse Bias	Max Forward Bias	Num Sweep Points	Dwell Time	Current Limit	PVIV 10A I-AMP	Average	Dark Current	Rshunt V-Lo	Rshunt V-Hi
0.077170	1.0000	0.5000	0	-0.1000	1.2000	101	10	130	0	1	0	-0.6000	-0.1000

Voc V	Isc A	Jsc mA/cm2	Imax A	Vmax V	Pmax mW	Fill Factor	Efficiency	R at Voc	R at Isc	Power W	RShunt ohms	Cell Temp start	Cell Temp end	Exposure	Time	Date
1.02313	0.00111484	14.4466	0.00073494	0.622767	0.457694	40.1263	5.9310	290.119	5011.070	0.00079136	NaN	NaN	NaN	8.281	19:30:35	05/06/2024

Vmeas	Imeas
1.2	-0.00089265
1.187	-0.00082622
1.174	-0.00075014
1.161	-0.00067178
1.148	-0.00059395
1.135	-0.00051787
1.122	-0.00044388
1.109	-0.00037271
1.096	-0.00030447
1.083	-0.00023952
1.07	-0.00017787
1.057	-0.00011969
1.044	-0.00006380
1.031	-0.00001372
1.018	0.00003367
1.005	0.00007785
0.992	0.00011555
0.979	0.00015496
0.966	0.00019091
0.953	0.00022389
0.94	0.00025442
0.927	0.00028232
0.914	0.00030968
0.901	0.00033499
0.888	0.00035909
0.875	0.00038202
0.862	0.00040416
0.849	0.00042559
0.836	0.00044644
0.823	0.00046667
0.81	0.00048598
0.797	0.00050529
0.784	0.00052426
0.771	0.00054279
0.758	0.00056091
0.745	0.00057916
0.732	0.00059680
0.719	0.00061440
0.706	0.00063139
0.693	0.00064820
0.68	0.00066508
0.667	0.00068138
0.654	0.00069754
0.641	0.00071341
0.628	0.00072886
0.615	0.00074402
0.602	0.00075894
0.589	0.00077383
0.576	0.00078858
0.563	0.00080265
0.55	0.00081699
0.537	0.00083084
0.524	0.00084439
0.511	0.00085673
0.498	0.00087063
0.485	0.00088391
0.472	0.00089633
0.459	0.00090881
0.446	0.00092083
0.433	0.00093247
0.42	0.00094375
0.407	0.00095438
0.394	0.00096533
0.381	0.00097546
0.368	0.00098553
0.355	0.00099495
0.342	0.00100407
0.329	0.00101282
0.316	0.00102084
0.303	0.00102868
0.29	0.00103589
0.277	0.00104284
0.264	0.00104928
0.251	0.00105657
0.238	0.00105896
0.225	0.00106379
0.212	0.00106875
0.199	0.00107347
0.186	0.00107772
0.173	0.00108138
0.16	0.00108559
0.147	0.00108886
0.134	0.00109247
0.121	0.00109554
0.108	0.00109829
0.09500000	0.00110117
0.08200000	0.00110350
0.06900000	0.00110571
0.05600000	0.00110787
0.04300000	0.00111045
0.03000000	0.00111225
0.01700000	0.00111407
0.00400000	0.00111569
-0.00900000	0.00111763
-0.02200000	0.00111902
-0.03500000	0.00112034
-0.04800000	0.00112224
-0.06100000	0.00112356
-0.07400000	0.00112495
-0.08700000	0.00112639
-0.1	0.00112746

File: A3-3_ITO+SnO2+PVSK+C6Br+Spiro+Carbon (Air Quench)  2024-04-18 20-16-15 2024-05-06 19-31-43.txt
Device Id	Operator	Recipe
A2-3_ITO+SnO2+PVSK+C6Br+Spiro+Carbon (Air Quench)  2024-04-18 20-16-15	Unknown	Jacob PVSKT _ 0.077cm^2 (nature recipe).IV

Sample Area	Irradiance	Pre sweep delay	Bias Direction	Max Reverse Bias	Max Forward Bias	Num Sweep Points	Dwell Time	Current Limit	PVIV 10A I-AMP	Average	Dark Current	Rshunt V-Lo	Rshunt V-Hi
0.077170	1.0000	0.5000	0	-0.1000	1.2000	101	10	130	0	1	0	-0.6000	-0.1000

Voc V	Isc A	Jsc mA/cm2	Imax A	Vmax V	Pmax mW	Fill Factor	Efficiency	R at Voc	R at Isc	Power W	RShunt ohms	Cell Temp start	Cell Temp end	Exposure	Time	Date
1.02545	0.00163897	21.2384	0.00107245	0.603823	0.647569	38.5300	8.3915	203.543	4187.854	0.00114929	NaN	NaN	NaN	8.562	19:31:43	05/06/2024

Vmeas	Imeas
1.2	-0.00125082
1.187	-0.00115705
1.174	-0.00104857
1.161	-0.00093571
1.148	-0.00082653
1.135	-0.00071665
1.122	-0.00060937
1.109	-0.00050666
1.096	-0.00040845
1.083	-0.00031526
1.07	-0.00022753
1.057	-0.00014537
1.044	-0.00006705
1.031	0.00000233
1.018	0.00006590
1.005	0.00012320
0.992	0.00017918
0.979	0.00022972
0.966	0.00027593
0.953	0.00031799
0.94	0.00035665
0.927	0.00039331
0.914	0.00042753
0.901	0.00045983
0.888	0.00049100
0.875	0.00052092
0.862	0.00055003
0.849	0.00057870
0.836	0.00060673
0.823	0.00063512
0.81	0.00066245
0.797	0.00068993
0.784	0.00071684
0.771	0.00074379
0.758	0.00077058
0.745	0.00079612
0.732	0.00082375
0.719	0.00085026
0.706	0.00087656
0.693	0.00090266
0.68	0.00092876
0.667	0.00095499
0.654	0.00098071
0.641	0.00100619
0.628	0.00103208
0.615	0.00105019
0.602	0.00108198
0.589	0.00109493
0.576	0.00111851
0.563	0.00114276
0.55	0.00116647
0.537	0.00119064
0.524	0.00121392
0.511	0.00123688
0.498	0.00125989
0.485	0.00128229
0.472	0.00130441
0.459	0.00132569
0.446	0.00134664
0.433	0.00136688
0.42	0.00138703
0.407	0.00140673
0.394	0.00142511
0.381	0.00144288
0.368	0.00145973
0.355	0.00147580
0.342	0.00149088
0.329	0.00150492
0.316	0.00151853
0.303	0.00153070
0.29	0.00154211
0.277	0.00155236
0.264	0.00156208
0.251	0.00157101
0.238	0.00157862
0.225	0.00158553
0.212	0.00159224
0.199	0.00159769
0.186	0.00160260
0.173	0.00160687
0.16	0.00161137
0.147	0.00161541
0.134	0.00161830
0.121	0.00162139
0.108	0.00162378
0.09500000	0.00162660
0.08200000	0.00162906
0.06900000	0.00163120
0.05600000	0.00163264
0.04300000	0.00163458
0.03000000	0.00163600
0.01700000	0.00163783
0.00400000	0.00163964
-0.00900000	0.00164022
-0.02200000	0.00164136
-0.03500000	0.00164289
-0.04800000	0.00164423
-0.06100000	0.00164551
-0.07400000	0.00164601
-0.08700000	0.00164735
-0.1	0.00164832

File: A3-4_ITO+SnO2+PVSK+C6Br+Spiro+Carbon (Air Quench)  2024-04-18 20-16-15 2024-05-06 19-32-20.txt
Device Id	Operator	Recipe
A2-4_ITO+SnO2+PVSK+C6Br+Spiro+Carbon (Air Quench)  2024-04-18 20-16-15	Unknown	Jacob PVSKT _ 0.077cm^2 (nature recipe).IV

Sample Area	Irradiance	Pre sweep delay	Bias Direction	Max Reverse Bias	Max Forward Bias	Num Sweep Points	Dwell Time	Current Limit	PVIV 10A I-AMP	Average	Dark Current	Rshunt V-Lo	Rshunt V-Hi
0.077170	1.0000	0.5000	0	-0.1000	1.2000	101	10	130	0	1	0	-0.6000	-0.1000

Voc V	Isc A	Jsc mA/cm2	Imax A	Vmax V	Pmax mW	Fill Factor	Efficiency	R at Voc	R at Isc	Power W	RShunt ohms	Cell Temp start	Cell Temp end	Exposure	Time	Date
1.03968	0.00153358	19.8727	0.00106842	0.640575	0.6844	42.9243	8.8687	242.362	5465.571	0.00114345	NaN	NaN	NaN	8.484	19:32:20	05/06/2024

Vmeas	Imeas
1.2	-0.00079850
1.187	-0.00073280
1.174	-0.00066351
1.161	-0.00059224
1.148	-0.00052058
1.135	-0.00044974
1.122	-0.00037996
1.109	-0.00031216
1.096	-0.00024641
1.083	-0.00018281
1.07	-0.00012146
1.057	-0.00006188
1.044	-0.00000613
1.031	0.00004721
1.018	0.00010037
1.005	0.00014684
0.992	0.00019743
0.979	0.00024510
0.966	0.00029066
0.953	0.00033411
0.94	0.00037570
0.927	0.00041574
0.914	0.00045421
0.901	0.00049151
0.888	0.00052732
0.875	0.00056221
0.862	0.00059603
0.849	0.00062905
0.836	0.00066134
0.823	0.00069312
0.81	0.00072395
0.797	0.00075417
0.784	0.00078407
0.771	0.00081311
0.758	0.00084156
0.745	0.00086996
0.732	0.00089758
0.719	0.00092504
0.706	0.00095122
0.693	0.00097701
0.68	0.00100262
0.667	0.00102731
0.654	0.00105001
0.641	0.00106430
0.628	0.00108535
0.615	0.00110932
0.602	0.00113242
0.589	0.00115492
0.576	0.00117688
0.563	0.00119829
0.55	0.00121834
0.537	0.00123718
0.524	0.00125660
0.511	0.00127525
0.498	0.00129283
0.485	0.00130960
0.472	0.00132562
0.459	0.00134061
0.446	0.00135498
0.433	0.00136789
0.42	0.00138148
0.407	0.00139321
0.394	0.00140445
0.381	0.00141507
0.368	0.00142490
0.355	0.00143398
0.342	0.00144247
0.329	0.00145002
0.316	0.00145732
0.303	0.00146369
0.29	0.00146934
0.277	0.00147565
0.264	0.00148059
0.251	0.00148490
0.238	0.00148955
0.225	0.00149408
0.212	0.00149697
0.199	0.00150109
0.186	0.00150407
0.173	0.00150753
0.16	0.00151046
0.147	0.00151246
0.134	0.00151526
0.121	0.00151731
0.108	0.00151940
0.09500000	0.00152144
0.08200000	0.00152330
0.06900000	0.00152611
0.05600000	0.00152709
0.04300000	0.00152952
0.03000000	0.00153087
0.01700000	0.00153194
0.00400000	0.00153369
-0.00900000	0.00153470
-0.02200000	0.00153616
-0.03500000	0.00153781
-0.04800000	0.00153896
-0.06100000	0.00153979
-0.07400000	0.00154123
-0.08700000	0.00154227
-0.1	0.00154296