Folder: YanLab/Data/IV_data/20240619 - Freezing PVSK #1 - JV Data (part 4)

File: FZ_004-6_ITO+SnO2+PVSK+PEAI+Spiro+Carbon (Dry Ice)  2024-06-19 10-42-33.txt
Device Id	Operator	Recipe
FZ_004-6_ITO+SnO2+PVSK+PEAI+Spiro+Carbon (Dry Ice) 	Unknown	Jacob PVSKT _ 0.08cm2 (nature recipe).IV

Sample Area	Irradiance	Pre sweep delay	Bias Direction	Max Reverse Bias	Max Forward Bias	Num Sweep Points	Dwell Time	Current Limit	PVIV 10A I-AMP	Average	Dark Current	Rshunt V-Lo	Rshunt V-Hi
0.080000	1.0000	0.5000	0	-0.1000	1.2000	101	10	130	0	1	0	-0.6000	-0.1000

Voc V	Isc A	Jsc mA/cm2	Imax A	Vmax V	Pmax mW	Fill Factor	Efficiency	R at Voc	R at Isc	Power W	RShunt ohms	Cell Temp start	Cell Temp end	Exposure	Time	Date
1.04487	0.00149242	18.6553	0.00118174	0.743276	0.878358	56.3268	10.9795	126.403	8007.927	0.00127733	NaN	NaN	NaN	8.359	10:42:33	06/19/2024

Vmeas	Imeas
1.2	-0.00141810
1.187	-0.00130650
1.174	-0.00118706
1.161	-0.00106255
1.148	-0.00094017
1.135	-0.00081394
1.122	-0.00068657
1.109	-0.00056059
1.096	-0.00043701
1.083	-0.00031661
1.07	-0.00020017
1.057	-0.00008992
1.044	0.00001800
1.031	0.00011170
1.018	0.00021057
1.005	0.00030317
0.992	0.00039005
0.979	0.00047135
0.966	0.00054731
0.953	0.00061755
0.94	0.00068238
0.927	0.00074175
0.914	0.00079643
0.901	0.00084639
0.888	0.00089234
0.875	0.00093411
0.862	0.00097251
0.849	0.00100714
0.836	0.00103781
0.823	0.00105018
0.81	0.00105518
0.797	0.00108670
0.784	0.00111453
0.771	0.00113982
0.758	0.00116265
0.745	0.00118214
0.732	0.00120140
0.719	0.00121844
0.706	0.00123239
0.693	0.00124879
0.68	0.00126286
0.667	0.00127633
0.654	0.00128783
0.641	0.00129889
0.628	0.00130953
0.615	0.00131962
0.602	0.00132881
0.589	0.00133767
0.576	0.00134598
0.563	0.00135426
0.55	0.00136162
0.537	0.00136837
0.524	0.00137497
0.511	0.00138157
0.498	0.00138760
0.485	0.00139335
0.472	0.00139830
0.459	0.00140371
0.446	0.00140867
0.433	0.00141244
0.42	0.00141730
0.407	0.00142137
0.394	0.00142591
0.381	0.00142940
0.368	0.00143332
0.355	0.00143673
0.342	0.00144034
0.329	0.00144355
0.316	0.00144650
0.303	0.00144944
0.29	0.00145221
0.277	0.00145478
0.264	0.00145732
0.251	0.00145972
0.238	0.00146219
0.225	0.00146470
0.212	0.00146723
0.199	0.00146888
0.186	0.00147053
0.173	0.00147260
0.16	0.00147486
0.147	0.00147650
0.134	0.00147806
0.121	0.00147967
0.108	0.00148068
0.09500000	0.00148295
0.08200000	0.00148458
0.06900000	0.00148596
0.05600000	0.00148689
0.04300000	0.00148824
0.03000000	0.00148928
0.01700000	0.00149132
0.00400000	0.00149209
-0.00900000	0.00149547
-0.02200000	0.00149545
-0.03500000	0.00149634
-0.04800000	0.00149710
-0.06100000	0.00149809
-0.07400000	0.00149861
-0.08700000	0.00150011
-0.1	0.00150017

File: FZ_005-1_ITO+SnO2+PVSK+PEAI+Spiro+Carbon (Dry Ice)  2024-06-19 10-49-22.txt
Device Id	Operator	Recipe
FZ_005-1_ITO+SnO2+PVSK+PEAI+Spiro+Carbon (Dry Ice) 	Unknown	Jacob PVSKT _ 0.08cm2 (nature recipe).IV

Sample Area	Irradiance	Pre sweep delay	Bias Direction	Max Reverse Bias	Max Forward Bias	Num Sweep Points	Dwell Time	Current Limit	PVIV 10A I-AMP	Average	Dark Current	Rshunt V-Lo	Rshunt V-Hi
0.080000	1.0000	0.5000	0	-0.1000	1.2000	101	10	130	0	1	0	-0.6000	-0.1000

Voc V	Isc A	Jsc mA/cm2	Imax A	Vmax V	Pmax mW	Fill Factor	Efficiency	R at Voc	R at Isc	Power W	RShunt ohms	Cell Temp start	Cell Temp end	Exposure	Time	Date
1.04005	0.00136467	17.0584	0.00091121	0.66544	0.606353	42.7213	7.5794	264.914	2923.778	0.00099520	NaN	NaN	NaN	8.500	10:49:22	06/19/2024

Vmeas	Imeas
1.2	-0.00068262
1.187	-0.00062789
1.174	-0.00056856
1.161	-0.00050762
1.148	-0.00044780
1.135	-0.00038832
1.122	-0.00032969
1.109	-0.00027209
1.096	-0.00021593
1.083	-0.00016096
1.07	-0.00010728
1.057	-0.00005561
1.044	-0.00000542
1.031	0.00004282
1.018	0.00009132
1.005	0.00013531
0.992	0.00018132
0.979	0.00022528
0.966	0.00026766
0.953	0.00030853
0.94	0.00034778
0.927	0.00038573
0.914	0.00042217
0.901	0.00045739
0.888	0.00049095
0.875	0.00052341
0.862	0.00055467
0.849	0.00058478
0.836	0.00061393
0.823	0.00064200
0.81	0.00066906
0.797	0.00069501
0.784	0.00072024
0.771	0.00074457
0.758	0.00076790
0.745	0.00079048
0.732	0.00081227
0.719	0.00083321
0.706	0.00085238
0.693	0.00087269
0.68	0.00089180
0.667	0.00091013
0.654	0.00092795
0.641	0.00094483
0.628	0.00096075
0.615	0.00097704
0.602	0.00099286
0.589	0.00100804
0.576	0.00102246
0.563	0.00103646
0.55	0.00104966
0.537	0.00104874
0.524	0.00106336
0.511	0.00107689
0.498	0.00108974
0.485	0.00110248
0.472	0.00111465
0.459	0.00112629
0.446	0.00113727
0.433	0.00114816
0.42	0.00115880
0.407	0.00116890
0.394	0.00117839
0.381	0.00118769
0.368	0.00119631
0.355	0.00120505
0.342	0.00121316
0.329	0.00122146
0.316	0.00122916
0.303	0.00123701
0.29	0.00124486
0.277	0.00125223
0.264	0.00125911
0.251	0.00126624
0.238	0.00127311
0.225	0.00127918
0.212	0.00128574
0.199	0.00129205
0.186	0.00129792
0.173	0.00130361
0.16	0.00130884
0.147	0.00131469
0.134	0.00131990
0.121	0.00132540
0.108	0.00133023
0.09500000	0.00133477
0.08200000	0.00133954
0.06900000	0.00134453
0.05600000	0.00134955
0.04300000	0.00135374
0.03000000	0.00135785
0.01700000	0.00136182
0.00400000	0.00136561
-0.00900000	0.00136969
-0.02200000	0.00137312
-0.03500000	0.00137648
-0.04800000	0.00137989
-0.06100000	0.00138335
-0.07400000	0.00138674
-0.08700000	0.00138998
-0.1	0.00139297

File: FZ_005-1_ITO+SnO2+PVSK+PEAI+Spiro+Carbon (Dry Ice)  2024-06-19 10-49-51.txt
Device Id	Operator	Recipe
FZ_005-1_ITO+SnO2+PVSK+PEAI+Spiro+Carbon (Dry Ice) 	Unknown	Jacob PVSKT _ 0.08cm2 (nature recipe).IV

Sample Area	Irradiance	Pre sweep delay	Bias Direction	Max Reverse Bias	Max Forward Bias	Num Sweep Points	Dwell Time	Current Limit	PVIV 10A I-AMP	Average	Dark Current	Rshunt V-Lo	Rshunt V-Hi
0.080000	1.0000	0.5000	0	-0.1000	1.2000	101	10	130	0	1	0	-0.6000	-0.1000

Voc V	Isc A	Jsc mA/cm2	Imax A	Vmax V	Pmax mW	Fill Factor	Efficiency	R at Voc	R at Isc	Power W	RShunt ohms	Cell Temp start	Cell Temp end	Exposure	Time	Date
1.04069	0.00136454	17.0568	0.00091121	0.664693	0.605676	42.6514	7.5709	265.411	2893.389	0.00099480	NaN	NaN	NaN	8.500	10:49:51	06/19/2024

Vmeas	Imeas
1.2	-0.00068015
1.187	-0.00062572
1.174	-0.00056622
1.161	-0.00050590
1.148	-0.00044549
1.135	-0.00038583
1.122	-0.00032709
1.109	-0.00026944
1.096	-0.00021317
1.083	-0.00015815
1.07	-0.00010446
1.057	-0.00005289
1.044	-0.00000280
1.031	0.00004526
1.018	0.00009378
1.005	0.00013745
0.992	0.00018329
0.979	0.00022718
0.966	0.00026949
0.953	0.00031003
0.94	0.00034900
0.927	0.00038676
0.914	0.00042301
0.901	0.00045790
0.888	0.00049153
0.875	0.00052382
0.862	0.00055489
0.849	0.00058497
0.836	0.00061369
0.823	0.00064176
0.81	0.00066846
0.797	0.00069446
0.784	0.00071922
0.771	0.00074337
0.758	0.00076673
0.745	0.00078911
0.732	0.00081112
0.719	0.00083185
0.706	0.00085218
0.693	0.00087178
0.68	0.00089067
0.667	0.00090884
0.654	0.00092660
0.641	0.00094366
0.628	0.00096055
0.615	0.00097658
0.602	0.00099217
0.589	0.00100717
0.576	0.00102182
0.563	0.00103573
0.55	0.00104922
0.537	0.00104695
0.524	0.00106193
0.511	0.00107581
0.498	0.00108893
0.485	0.00110155
0.472	0.00111352
0.459	0.00112532
0.446	0.00113615
0.433	0.00114688
0.42	0.00115749
0.407	0.00116737
0.394	0.00117704
0.381	0.00118636
0.368	0.00119575
0.355	0.00120494
0.342	0.00121303
0.329	0.00122135
0.316	0.00122912
0.303	0.00123708
0.29	0.00124442
0.277	0.00125185
0.264	0.00125870
0.251	0.00126587
0.238	0.00127213
0.225	0.00127897
0.212	0.00128548
0.199	0.00129177
0.186	0.00129755
0.173	0.00130300
0.16	0.00130862
0.147	0.00131405
0.134	0.00131930
0.121	0.00132442
0.108	0.00132975
0.09500000	0.00133430
0.08200000	0.00133901
0.06900000	0.00134336
0.05600000	0.00134778
0.04300000	0.00135234
0.03000000	0.00135678
0.01700000	0.00136056
0.00400000	0.00136476
-0.00900000	0.00137073
-0.02200000	0.00137382
-0.03500000	0.00137697
-0.04800000	0.00138045
-0.06100000	0.00138392
-0.07400000	0.00138737
-0.08700000	0.00139026
-0.1	0.00139330

File: FZ_005-2_ITO+SnO2+PVSK+PEAI+Spiro+Carbon (Dry Ice)  2024-06-19 10-51-50.txt
Device Id	Operator	Recipe
FZ_005-2_ITO+SnO2+PVSK+PEAI+Spiro+Carbon (Dry Ice) 	Unknown	Jacob PVSKT _ 0.08cm2 (nature recipe).IV

Sample Area	Irradiance	Pre sweep delay	Bias Direction	Max Reverse Bias	Max Forward Bias	Num Sweep Points	Dwell Time	Current Limit	PVIV 10A I-AMP	Average	Dark Current	Rshunt V-Lo	Rshunt V-Hi
0.080000	1.0000	0.5000	0	-0.1000	1.2000	101	10	130	0	1	0	-0.6000	-0.1000

Voc V	Isc A	Jsc mA/cm2	Imax A	Vmax V	Pmax mW	Fill Factor	Efficiency	R at Voc	R at Isc	Power W	RShunt ohms	Cell Temp start	Cell Temp end	Exposure	Time	Date
1.04207	0.00138157	17.2696	0.00093615	0.672094	0.629181	43.7024	7.8648	232.62	3185.027	0.00102532	NaN	NaN	NaN	8.500	10:51:50	06/19/2024

Vmeas	Imeas
1.2	-0.00078588
1.187	-0.00072508
1.174	-0.00065855
1.161	-0.00058918
1.148	-0.00051901
1.135	-0.00044892
1.122	-0.00037912
1.109	-0.00031061
1.096	-0.00024371
1.083	-0.00017837
1.07	-0.00011516
1.057	-0.00005474
1.044	0.00000300
1.031	0.00005732
1.018	0.00010852
1.005	0.00016173
0.992	0.00021212
0.979	0.00025995
0.966	0.00030571
0.953	0.00034901
0.94	0.00039032
0.927	0.00042952
0.914	0.00046683
0.901	0.00050239
0.888	0.00053628
0.875	0.00056867
0.862	0.00059980
0.849	0.00062917
0.836	0.00065751
0.823	0.00068490
0.81	0.00071102
0.797	0.00073618
0.784	0.00076030
0.771	0.00078350
0.758	0.00080587
0.745	0.00082715
0.732	0.00084866
0.719	0.00086877
0.706	0.00088673
0.693	0.00090623
0.68	0.00092538
0.667	0.00094330
0.654	0.00096052
0.641	0.00097718
0.628	0.00099328
0.615	0.00100917
0.602	0.00102415
0.589	0.00103879
0.576	0.00105019
0.563	0.00104175
0.55	0.00106000
0.537	0.00107553
0.524	0.00108969
0.511	0.00110342
0.498	0.00111659
0.485	0.00112897
0.472	0.00114084
0.459	0.00115273
0.446	0.00116296
0.433	0.00117422
0.42	0.00118433
0.407	0.00119477
0.394	0.00120445
0.381	0.00121353
0.368	0.00122281
0.355	0.00123109
0.342	0.00123864
0.329	0.00124707
0.316	0.00125517
0.303	0.00126273
0.29	0.00127024
0.277	0.00127756
0.264	0.00128432
0.251	0.00129045
0.238	0.00129644
0.225	0.00130321
0.212	0.00130888
0.199	0.00131517
0.186	0.00132118
0.173	0.00132632
0.16	0.00133154
0.147	0.00133718
0.134	0.00134176
0.121	0.00134637
0.108	0.00135086
0.09500000	0.00135522
0.08200000	0.00136012
0.06900000	0.00136385
0.05600000	0.00136791
0.04300000	0.00137168
0.03000000	0.00137540
0.01700000	0.00137915
0.00400000	0.00138292
-0.00900000	0.00138600
-0.02200000	0.00138893
-0.03500000	0.00139223
-0.04800000	0.00139519
-0.06100000	0.00139837
-0.07400000	0.00140087
-0.08700000	0.00140373
-0.1	0.00140656

File: FZ_005-3_ITO+SnO2+PVSK+PEAI+Spiro+Carbon (Dry Ice)  2024-06-19 10-54-00.txt
Device Id	Operator	Recipe
FZ_005-3_ITO+SnO2+PVSK+PEAI+Spiro+Carbon (Dry Ice) 	Unknown	Jacob PVSKT _ 0.08cm2 (nature recipe).IV

Sample Area	Irradiance	Pre sweep delay	Bias Direction	Max Reverse Bias	Max Forward Bias	Num Sweep Points	Dwell Time	Current Limit	PVIV 10A I-AMP	Average	Dark Current	Rshunt V-Lo	Rshunt V-Hi
0.080000	1.0000	0.5000	0	-0.1000	1.2000	101	10	130	0	1	0	-0.6000	-0.1000

Voc V	Isc A	Jsc mA/cm2	Imax A	Vmax V	Pmax mW	Fill Factor	Efficiency	R at Voc	R at Isc	Power W	RShunt ohms	Cell Temp start	Cell Temp end	Exposure	Time	Date
1.05153	0.00138310	17.2887	0.00092074	0.66917	0.616134	42.3646	7.7017	240.994	3013.399	0.00101949	NaN	NaN	NaN	8.297	10:54:00	06/19/2024

Vmeas	Imeas
1.2	-0.00070390
1.187	-0.00064505
1.174	-0.00058054
1.161	-0.00051383
1.148	-0.00044679
1.135	-0.00038012
1.122	-0.00031426
1.109	-0.00025004
1.096	-0.00018736
1.083	-0.00012675
1.07	-0.00006841
1.057	-0.00001194
1.044	0.00004254
1.031	0.00009478
1.018	0.00013964
1.005	0.00018872
0.992	0.00023493
0.979	0.00027886
0.966	0.00032068
0.953	0.00036035
0.94	0.00039808
0.927	0.00043381
0.914	0.00046827
0.901	0.00050116
0.888	0.00053248
0.875	0.00056247
0.862	0.00059128
0.849	0.00061896
0.836	0.00064567
0.823	0.00067152
0.81	0.00069631
0.797	0.00072019
0.784	0.00074352
0.771	0.00076604
0.758	0.00078787
0.745	0.00080901
0.732	0.00082915
0.719	0.00084943
0.706	0.00086889
0.693	0.00088787
0.68	0.00090639
0.667	0.00092417
0.654	0.00094123
0.641	0.00095798
0.628	0.00097430
0.615	0.00099030
0.602	0.00100592
0.589	0.00102096
0.576	0.00103559
0.563	0.00104934
0.55	0.00104323
0.537	0.00106063
0.524	0.00107526
0.511	0.00108912
0.498	0.00110254
0.485	0.00111585
0.472	0.00112826
0.459	0.00114010
0.446	0.00115139
0.433	0.00116255
0.42	0.00117285
0.407	0.00118365
0.394	0.00119397
0.381	0.00120405
0.368	0.00121313
0.355	0.00122231
0.342	0.00123119
0.329	0.00123982
0.316	0.00124789
0.303	0.00125617
0.29	0.00126369
0.277	0.00127128
0.264	0.00127868
0.251	0.00128594
0.238	0.00129313
0.225	0.00129952
0.212	0.00130515
0.199	0.00131175
0.186	0.00131789
0.173	0.00132386
0.16	0.00132962
0.147	0.00133471
0.134	0.00133999
0.121	0.00134501
0.108	0.00134997
0.09500000	0.00135527
0.08200000	0.00135968
0.06900000	0.00136401
0.05600000	0.00136822
0.04300000	0.00137224
0.03000000	0.00137646
0.01700000	0.00138060
0.00400000	0.00138402
-0.00900000	0.00138809
-0.02200000	0.00139114
-0.03500000	0.00139478
-0.04800000	0.00139797
-0.06100000	0.00140139
-0.07400000	0.00140383
-0.08700000	0.00140715
-0.1	0.00141000

File: FZ_005-4_ITO+SnO2+PVSK+PEAI+Spiro+Carbon (Dry Ice)  2024-06-19 10-56-19.txt
Device Id	Operator	Recipe
FZ_005-4_ITO+SnO2+PVSK+PEAI+Spiro+Carbon (Dry Ice) 	Unknown	Jacob PVSKT _ 0.08cm2 (nature recipe).IV

Sample Area	Irradiance	Pre sweep delay	Bias Direction	Max Reverse Bias	Max Forward Bias	Num Sweep Points	Dwell Time	Current Limit	PVIV 10A I-AMP	Average	Dark Current	Rshunt V-Lo	Rshunt V-Hi
0.080000	1.0000	0.5000	0	-0.1000	1.2000	101	10	130	0	1	0	-0.6000	-0.1000

Voc V	Isc A	Jsc mA/cm2	Imax A	Vmax V	Pmax mW	Fill Factor	Efficiency	R at Voc	R at Isc	Power W	RShunt ohms	Cell Temp start	Cell Temp end	Exposure	Time	Date
1.04124	0.00148330	18.5413	0.00102176	0.752002	0.768367	49.7494	9.6046	167.074	4792.342	0.00118678	NaN	NaN	NaN	8.547	10:56:19	06/19/2024

Vmeas	Imeas
1.2	-0.00111433
1.187	-0.00102650
1.174	-0.00093984
1.161	-0.00084258
1.148	-0.00074296
1.135	-0.00064327
1.122	-0.00054380
1.109	-0.00044703
1.096	-0.00035211
1.083	-0.00026006
1.07	-0.00017048
1.057	-0.00008510
1.044	-0.00000424
1.031	0.00007162
1.018	0.00014281
1.005	0.00021660
0.992	0.00028582
0.979	0.00035110
0.966	0.00041303
0.953	0.00047112
0.94	0.00052549
0.927	0.00057643
0.914	0.00062439
0.901	0.00066931
0.888	0.00071123
0.875	0.00075106
0.862	0.00078806
0.849	0.00082167
0.836	0.00085525
0.823	0.00088636
0.81	0.00091548
0.797	0.00094335
0.784	0.00096896
0.771	0.00099410
0.758	0.00101769
0.745	0.00104055
0.732	0.00105018
0.719	0.00104802
0.706	0.00107372
0.693	0.00109530
0.68	0.00111564
0.667	0.00113452
0.654	0.00115239
0.641	0.00116873
0.628	0.00118445
0.615	0.00119937
0.602	0.00121387
0.589	0.00122714
0.576	0.00123997
0.563	0.00125235
0.55	0.00126383
0.537	0.00127508
0.524	0.00128523
0.511	0.00129599
0.498	0.00130596
0.485	0.00131520
0.472	0.00132426
0.459	0.00133251
0.446	0.00134009
0.433	0.00134829
0.42	0.00135596
0.407	0.00136321
0.394	0.00136993
0.381	0.00137649
0.368	0.00138253
0.355	0.00138819
0.342	0.00139426
0.329	0.00139982
0.316	0.00140528
0.303	0.00141046
0.29	0.00141451
0.277	0.00141935
0.264	0.00142418
0.251	0.00142868
0.238	0.00143270
0.225	0.00143694
0.212	0.00144066
0.199	0.00144397
0.186	0.00144766
0.173	0.00145118
0.16	0.00145374
0.147	0.00145725
0.134	0.00146025
0.121	0.00146300
0.108	0.00146514
0.09500000	0.00146834
0.08200000	0.00147088
0.06900000	0.00147288
0.05600000	0.00147519
0.04300000	0.00147707
0.03000000	0.00147946
0.01700000	0.00148156
0.00400000	0.00148346
-0.00900000	0.00148566
-0.02200000	0.00148671
-0.03500000	0.00148880
-0.04800000	0.00149035
-0.06100000	0.00149211
-0.07400000	0.00149369
-0.08700000	0.00149561
-0.1	0.00149648

File: FZ_005-4_ITO+SnO2+PVSK+PEAI+Spiro+Carbon (Dry Ice)  2024-06-19 10-56-30.txt
Device Id	Operator	Recipe
FZ_005-4_ITO+SnO2+PVSK+PEAI+Spiro+Carbon (Dry Ice) 	Unknown	Jacob PVSKT _ 0.08cm2 (nature recipe).IV

Sample Area	Irradiance	Pre sweep delay	Bias Direction	Max Reverse Bias	Max Forward Bias	Num Sweep Points	Dwell Time	Current Limit	PVIV 10A I-AMP	Average	Dark Current	Rshunt V-Lo	Rshunt V-Hi
0.080000	1.0000	0.5000	0	-0.1000	1.2000	101	10	130	0	1	0	-0.6000	-0.1000

Voc V	Isc A	Jsc mA/cm2	Imax A	Vmax V	Pmax mW	Fill Factor	Efficiency	R at Voc	R at Isc	Power W	RShunt ohms	Cell Temp start	Cell Temp end	Exposure	Time	Date
1.04142	0.00148021	18.5026	0.00101908	0.75431	0.7687	49.8667	9.6087	165.6	4693.037	0.00118549	NaN	NaN	NaN	8.562	10:56:30	06/19/2024

Vmeas	Imeas
1.2	-0.00112066
1.187	-0.00103619
1.174	-0.00094916
1.161	-0.00085100
1.148	-0.00075016
1.135	-0.00064923
1.122	-0.00054898
1.109	-0.00045076
1.096	-0.00035482
1.083	-0.00026144
1.07	-0.00017075
1.057	-0.00008466
1.044	-0.00000308
1.031	0.00007342
1.018	0.00014529
1.005	0.00021959
0.992	0.00028916
0.979	0.00035496
0.966	0.00041721
0.953	0.00047538
0.94	0.00052971
0.927	0.00058093
0.914	0.00062901
0.901	0.00067381
0.888	0.00071577
0.875	0.00075526
0.862	0.00079227
0.849	0.00082665
0.836	0.00085926
0.823	0.00088980
0.81	0.00091847
0.797	0.00094610
0.784	0.00097173
0.771	0.00099628
0.758	0.00101913
0.745	0.00104130
0.732	0.00105018
0.719	0.00104780
0.706	0.00107323
0.693	0.00109525
0.68	0.00111492
0.667	0.00113371
0.654	0.00115100
0.641	0.00116761
0.628	0.00118272
0.615	0.00119754
0.602	0.00121187
0.589	0.00122447
0.576	0.00123780
0.563	0.00124999
0.55	0.00126067
0.537	0.00127180
0.524	0.00128283
0.511	0.00129228
0.498	0.00130268
0.485	0.00131163
0.472	0.00132095
0.459	0.00132881
0.446	0.00133706
0.433	0.00134483
0.42	0.00135221
0.407	0.00135922
0.394	0.00136639
0.381	0.00137293
0.368	0.00137857
0.355	0.00138413
0.342	0.00139054
0.329	0.00139536
0.316	0.00140053
0.303	0.00140619
0.29	0.00141103
0.277	0.00141544
0.264	0.00142012
0.251	0.00142406
0.238	0.00142861
0.225	0.00143256
0.212	0.00143672
0.199	0.00144003
0.186	0.00144349
0.173	0.00144692
0.16	0.00145049
0.147	0.00145310
0.134	0.00145615
0.121	0.00145914
0.108	0.00146224
0.09500000	0.00146448
0.08200000	0.00146677
0.06900000	0.00146858
0.05600000	0.00147118
0.04300000	0.00147391
0.03000000	0.00147599
0.01700000	0.00147797
0.00400000	0.00147999
-0.00900000	0.00148434
-0.02200000	0.00148451
-0.03500000	0.00148592
-0.04800000	0.00148775
-0.06100000	0.00148915
-0.07400000	0.00149084
-0.08700000	0.00149260
-0.1	0.00149422

File: FZ_005-5_ITO+SnO2+PVSK+PEAI+Spiro+Carbon (Dry Ice)  2024-06-19 10-57-56.txt
Device Id	Operator	Recipe
FZ_005-5_ITO+SnO2+PVSK+PEAI+Spiro+Carbon (Dry Ice) 	Unknown	Jacob PVSKT _ 0.08cm2 (nature recipe).IV

Sample Area	Irradiance	Pre sweep delay	Bias Direction	Max Reverse Bias	Max Forward Bias	Num Sweep Points	Dwell Time	Current Limit	PVIV 10A I-AMP	Average	Dark Current	Rshunt V-Lo	Rshunt V-Hi
0.080000	1.0000	0.5000	0	-0.1000	1.2000	101	10	130	0	1	0	-0.6000	-0.1000

Voc V	Isc A	Jsc mA/cm2	Imax A	Vmax V	Pmax mW	Fill Factor	Efficiency	R at Voc	R at Isc	Power W	RShunt ohms	Cell Temp start	Cell Temp end	Exposure	Time	Date
1.05503	0.00148713	18.5891	0.00099113	0.753797	0.747108	47.6176	9.3389	173.933	3936.169	0.00117630	NaN	NaN	NaN	8.500	10:57:56	06/19/2024

Vmeas	Imeas
1.2	-0.00097380
1.187	-0.00089254
1.174	-0.00080493
1.161	-0.00071320
1.148	-0.00061864
1.135	-0.00052377
1.122	-0.00042960
1.109	-0.00033696
1.096	-0.00024668
1.083	-0.00015908
1.07	-0.00007583
1.057	0.00000256
1.044	0.00007501
1.031	0.00014163
1.018	0.00021204
1.005	0.00027777
0.992	0.00033976
0.979	0.00039787
0.966	0.00045213
0.953	0.00050266
0.94	0.00054995
0.927	0.00059408
0.914	0.00063564
0.901	0.00067419
0.888	0.00071077
0.875	0.00074497
0.862	0.00077716
0.849	0.00080795
0.836	0.00083599
0.823	0.00086393
0.81	0.00089046
0.797	0.00091579
0.784	0.00093953
0.771	0.00096273
0.758	0.00098484
0.745	0.00100590
0.732	0.00102632
0.719	0.00104625
0.706	0.00105018
0.693	0.00103408
0.68	0.00106258
0.667	0.00108407
0.654	0.00110391
0.641	0.00112268
0.628	0.00114036
0.615	0.00115673
0.602	0.00117262
0.589	0.00118773
0.576	0.00120195
0.563	0.00121535
0.55	0.00122859
0.537	0.00124012
0.524	0.00125274
0.511	0.00126523
0.498	0.00127682
0.485	0.00128760
0.472	0.00129775
0.459	0.00130708
0.446	0.00131690
0.433	0.00132568
0.42	0.00133471
0.407	0.00134295
0.394	0.00135064
0.381	0.00135888
0.368	0.00136589
0.355	0.00137324
0.342	0.00137993
0.329	0.00138672
0.316	0.00139278
0.303	0.00139885
0.29	0.00140445
0.277	0.00140999
0.264	0.00141566
0.251	0.00142118
0.238	0.00142493
0.225	0.00142991
0.212	0.00143468
0.199	0.00143941
0.186	0.00144349
0.173	0.00144776
0.16	0.00145135
0.147	0.00145528
0.134	0.00145832
0.121	0.00146208
0.108	0.00146486
0.09500000	0.00146809
0.08200000	0.00147141
0.06900000	0.00147423
0.05600000	0.00147704
0.04300000	0.00147996
0.03000000	0.00148262
0.01700000	0.00148472
0.00400000	0.00148685
-0.00900000	0.00149008
-0.02200000	0.00149166
-0.03500000	0.00149387
-0.04800000	0.00149608
-0.06100000	0.00149795
-0.07400000	0.00150017
-0.08700000	0.00150227
-0.1	0.00150379

File: FZ_005-6_ITO+SnO2+PVSK+PEAI+Spiro+Carbon (Dry Ice)  2024-06-19 11-00-06.txt
Device Id	Operator	Recipe
FZ_005-6_ITO+SnO2+PVSK+PEAI+Spiro+Carbon (Dry Ice) 	Unknown	Jacob PVSKT _ 0.08cm2 (nature recipe).IV

Sample Area	Irradiance	Pre sweep delay	Bias Direction	Max Reverse Bias	Max Forward Bias	Num Sweep Points	Dwell Time	Current Limit	PVIV 10A I-AMP	Average	Dark Current	Rshunt V-Lo	Rshunt V-Hi
0.080000	1.0000	0.5000	0	-0.1000	1.2000	101	10	130	0	1	0	-0.6000	-0.1000

Voc V	Isc A	Jsc mA/cm2	Imax A	Vmax V	Pmax mW	Fill Factor	Efficiency	R at Voc	R at Isc	Power W	RShunt ohms	Cell Temp start	Cell Temp end	Exposure	Time	Date
1.04731	0.00153276	19.1595	0.00101609	0.76969	0.782078	48.7193	9.7760	162.063	3889.905	0.00122021	NaN	NaN	NaN	8.359	11:00:06	06/19/2024

Vmeas	Imeas
1.2	-0.00108213
1.187	-0.00101054
1.174	-0.00091529
1.161	-0.00081614
1.148	-0.00071554
1.135	-0.00061449
1.122	-0.00051487
1.109	-0.00041670
1.096	-0.00032043
1.083	-0.00022706
1.07	-0.00013618
1.057	-0.00005169
1.044	0.00003311
1.031	0.00010357
1.018	0.00018184
1.005	0.00025540
0.992	0.00032463
0.979	0.00039024
0.966	0.00045203
0.953	0.00050909
0.94	0.00056084
0.927	0.00061142
0.914	0.00065866
0.901	0.00070251
0.888	0.00074364
0.875	0.00078226
0.862	0.00081804
0.849	0.00085255
0.836	0.00088461
0.823	0.00091460
0.81	0.00094316
0.797	0.00097043
0.784	0.00099617
0.771	0.00102031
0.758	0.00104340
0.745	0.00105018
0.732	0.00104012
0.719	0.00106847
0.706	0.00108987
0.693	0.00111338
0.68	0.00113457
0.667	0.00115411
0.654	0.00117235
0.641	0.00118963
0.628	0.00120442
0.615	0.00121999
0.602	0.00123510
0.589	0.00124965
0.576	0.00126418
0.563	0.00127707
0.55	0.00128878
0.537	0.00130078
0.524	0.00131213
0.511	0.00132341
0.498	0.00133331
0.485	0.00134236
0.472	0.00135182
0.459	0.00136134
0.446	0.00137014
0.433	0.00137778
0.42	0.00138629
0.407	0.00139348
0.394	0.00140084
0.381	0.00140798
0.368	0.00141519
0.355	0.00142138
0.342	0.00142797
0.329	0.00143419
0.316	0.00143990
0.303	0.00144521
0.29	0.00145025
0.277	0.00145615
0.264	0.00146143
0.251	0.00146598
0.238	0.00147034
0.225	0.00147535
0.212	0.00147975
0.199	0.00148446
0.186	0.00148854
0.173	0.00149207
0.16	0.00149582
0.147	0.00149893
0.134	0.00150242
0.121	0.00150568
0.108	0.00150945
0.09500000	0.00151240
0.08200000	0.00151575
0.06900000	0.00151871
0.05600000	0.00152131
0.04300000	0.00152447
0.03000000	0.00152655
0.01700000	0.00152939
0.00400000	0.00153183
-0.00900000	0.00153913
-0.02200000	0.00153877
-0.03500000	0.00154032
-0.04800000	0.00154259
-0.06100000	0.00154439
-0.07400000	0.00154697
-0.08700000	0.00154857
-0.1	0.00155038

File: FZ_006-1_ITO+SnO2+PVSK+PEAI+Spiro+Carbon (Dry Ice)  2024-06-19 11-05-44.txt
Device Id	Operator	Recipe
FZ_006-1_ITO+SnO2+PVSK+PEAI+Spiro+Carbon (Dry Ice) 	Unknown	Jacob PVSKT _ 0.08cm2 (nature recipe).IV

Sample Area	Irradiance	Pre sweep delay	Bias Direction	Max Reverse Bias	Max Forward Bias	Num Sweep Points	Dwell Time	Current Limit	PVIV 10A I-AMP	Average	Dark Current	Rshunt V-Lo	Rshunt V-Hi
0.080000	1.0000	0.5000	0	-0.1000	1.2000	101	10	130	0	1	0	-0.6000	-0.1000

Voc V	Isc A	Jsc mA/cm2	Imax A	Vmax V	Pmax mW	Fill Factor	Efficiency	R at Voc	R at Isc	Power W	RShunt ohms	Cell Temp start	Cell Temp end	Exposure	Time	Date
1.04171	0.00144302	18.0377	0.00100454	0.74449	0.747872	49.7520	9.3484	157.805	3835.263	0.00114878	NaN	NaN	NaN	8.562	11:05:44	06/19/2024

Vmeas	Imeas
1.2	-0.00116994
1.187	-0.00108582
1.174	-0.00099026
1.161	-0.00088615
1.148	-0.00077968
1.135	-0.00067360
1.122	-0.00056856
1.109	-0.00046596
1.096	-0.00036604
1.083	-0.00026914
1.07	-0.00017574
1.057	-0.00008729
1.044	-0.00000309
1.031	0.00007591
1.018	0.00015032
1.005	0.00022521
0.992	0.00029507
0.979	0.00036046
0.966	0.00042159
0.953	0.00047847
0.94	0.00053122
0.927	0.00058016
0.914	0.00062560
0.901	0.00066796
0.888	0.00070738
0.875	0.00074405
0.862	0.00077822
0.849	0.00080980
0.836	0.00083982
0.823	0.00086814
0.81	0.00089417
0.797	0.00091916
0.784	0.00094270
0.771	0.00096466
0.758	0.00098626
0.745	0.00100612
0.732	0.00102489
0.719	0.00104349
0.706	0.00104407
0.693	0.00106282
0.68	0.00108069
0.667	0.00109654
0.654	0.00111274
0.641	0.00112707
0.628	0.00114109
0.615	0.00115441
0.602	0.00116700
0.589	0.00117883
0.576	0.00119096
0.563	0.00120179
0.55	0.00121237
0.537	0.00122304
0.524	0.00123262
0.511	0.00124168
0.498	0.00125141
0.485	0.00125983
0.472	0.00126836
0.459	0.00127646
0.446	0.00128361
0.433	0.00129189
0.42	0.00129915
0.407	0.00130614
0.394	0.00131311
0.381	0.00131971
0.368	0.00132580
0.355	0.00133191
0.342	0.00133748
0.329	0.00134318
0.316	0.00134893
0.303	0.00135460
0.29	0.00135962
0.277	0.00136498
0.264	0.00136973
0.251	0.00137456
0.238	0.00137926
0.225	0.00138400
0.212	0.00138820
0.199	0.00139215
0.186	0.00139616
0.173	0.00140082
0.16	0.00140452
0.147	0.00140832
0.134	0.00141219
0.121	0.00141448
0.108	0.00141883
0.09500000	0.00142180
0.08200000	0.00142496
0.06900000	0.00142706
0.05600000	0.00143051
0.04300000	0.00143411
0.03000000	0.00143767
0.01700000	0.00144010
0.00400000	0.00144254
-0.00900000	0.00144779
-0.02200000	0.00144966
-0.03500000	0.00145135
-0.04800000	0.00145373
-0.06100000	0.00145557
-0.07400000	0.00145793
-0.08700000	0.00146064
-0.1	0.00146239