Folder: YanLab/Data/IV_data/20240619 - Freezing PVSK #1 - JV Data (part 5)

File: FZ_006-2_ITO+SnO2+PVSK+PEAI+Spiro+Carbon (Dry Ice)  2024-06-19 11-07-34.txt
Device Id	Operator	Recipe
FZ_006-2_ITO+SnO2+PVSK+PEAI+Spiro+Carbon (Dry Ice) 	Unknown	Jacob PVSKT _ 0.08cm2 (nature recipe).IV

Sample Area	Irradiance	Pre sweep delay	Bias Direction	Max Reverse Bias	Max Forward Bias	Num Sweep Points	Dwell Time	Current Limit	PVIV 10A I-AMP	Average	Dark Current	Rshunt V-Lo	Rshunt V-Hi
0.080000	1.0000	0.5000	0	-0.1000	1.2000	101	10	130	0	1	0	-0.6000	-0.1000

Voc V	Isc A	Jsc mA/cm2	Imax A	Vmax V	Pmax mW	Fill Factor	Efficiency	R at Voc	R at Isc	Power W	RShunt ohms	Cell Temp start	Cell Temp end	Exposure	Time	Date
0.103274	0.00068248	8.53102	0.00034370	0.05105208	0.01754658	24.8950	0.2193	146.315	151.809	0.00003507	NaN	NaN	NaN	8.359	11:07:34	06/19/2024

Vmeas	Imeas
1.2	-0.00790081
1.187	-0.00781409
1.174	-0.00772450
1.161	-0.00762920
1.148	-0.00753468
1.135	-0.00743361
1.122	-0.00733693
1.109	-0.00723956
1.096	-0.00714434
1.083	-0.00705034
1.07	-0.00695526
1.057	-0.00685533
1.044	-0.00676003
1.031	-0.00665984
1.018	-0.00655991
1.005	-0.00646549
0.992	-0.00636883
0.979	-0.00627151
0.966	-0.00617100
0.953	-0.00607594
0.94	-0.00597380
0.927	-0.00587492
0.914	-0.00577495
0.901	-0.00567422
0.888	-0.00557449
0.875	-0.00547178
0.862	-0.00537221
0.849	-0.00527276
0.836	-0.00517412
0.823	-0.00507399
0.81	-0.00497740
0.797	-0.00487874
0.784	-0.00477587
0.771	-0.00467866
0.758	-0.00458101
0.745	-0.00448393
0.732	-0.00438746
0.719	-0.00429075
0.706	-0.00419335
0.693	-0.00409693
0.68	-0.00399969
0.667	-0.00390463
0.654	-0.00380979
0.641	-0.00371390
0.628	-0.00361827
0.615	-0.00352490
0.602	-0.00342985
0.589	-0.00333777
0.576	-0.00324256
0.563	-0.00314948
0.55	-0.00305618
0.537	-0.00296321
0.524	-0.00287088
0.511	-0.00277886
0.498	-0.00268689
0.485	-0.00259586
0.472	-0.00250487
0.459	-0.00241330
0.446	-0.00232329
0.433	-0.00223183
0.42	-0.00214086
0.407	-0.00205059
0.394	-0.00196083
0.381	-0.00187046
0.368	-0.00178110
0.355	-0.00169159
0.342	-0.00160158
0.329	-0.00151258
0.316	-0.00142397
0.303	-0.00133587
0.29	-0.00124741
0.277	-0.00115965
0.264	-0.00107075
0.251	-0.00098972
0.238	-0.00089953
0.225	-0.00081107
0.212	-0.00072311
0.199	-0.00063489
0.186	-0.00054784
0.173	-0.00045975
0.16	-0.00037255
0.147	-0.00028571
0.134	-0.00019928
0.121	-0.00011262
0.108	-0.00003230
0.09500000	0.00005655
0.08200000	0.00013396
0.06900000	0.00022287
0.05600000	0.00031039
0.04300000	0.00039713
0.03000000	0.00048347
0.01700000	0.00056982
0.00400000	0.00065613
-0.00900000	0.00074177
-0.02200000	0.00082770
-0.03500000	0.00091352
-0.04800000	0.00099939
-0.06100000	0.00107546
-0.07400000	0.00116385
-0.08700000	0.00125060
-0.1	0.00133685

File: FZ_006-3_ITO+SnO2+PVSK+PEAI+Spiro+Carbon (Dry Ice)  2024-06-19 11-08-20.txt
Device Id	Operator	Recipe
FZ_006-3_ITO+SnO2+PVSK+PEAI+Spiro+Carbon (Dry Ice) 	Unknown	Jacob PVSKT _ 0.08cm2 (nature recipe).IV

Sample Area	Irradiance	Pre sweep delay	Bias Direction	Max Reverse Bias	Max Forward Bias	Num Sweep Points	Dwell Time	Current Limit	PVIV 10A I-AMP	Average	Dark Current	Rshunt V-Lo	Rshunt V-Hi
0.080000	1.0000	0.5000	0	-0.1000	1.2000	101	10	130	0	1	0	-0.6000	-0.1000

Voc V	Isc A	Jsc mA/cm2	Imax A	Vmax V	Pmax mW	Fill Factor	Efficiency	R at Voc	R at Isc	Power W	RShunt ohms	Cell Temp start	Cell Temp end	Exposure	Time	Date
0.822226	0.00133886	16.7357	0.00082116	0.491241	0.403389	36.6436	5.0424	316.449	1529.504	0.00070246	NaN	NaN	NaN	8.562	11:08:20	06/19/2024

Vmeas	Imeas
1.2	-0.00106841
1.187	-0.00102393
1.174	-0.00098234
1.161	-0.00093207
1.148	-0.00088206
1.135	-0.00083542
1.122	-0.00078399
1.109	-0.00073585
1.096	-0.00069448
1.083	-0.00065408
1.07	-0.00061884
1.057	-0.00058531
1.044	-0.00056110
1.031	-0.00053370
1.018	-0.00050169
1.005	-0.00047867
0.992	-0.00045555
0.979	-0.00042825
0.966	-0.00040692
0.953	-0.00037679
0.94	-0.00034197
0.927	-0.00031010
0.914	-0.00027742
0.901	-0.00024659
0.888	-0.00020555
0.875	-0.00016667
0.862	-0.00012612
0.849	-0.00008831
0.836	-0.00004213
0.823	-0.00001234
0.81	0.00004149
0.797	0.00008698
0.784	0.00011648
0.771	0.00016325
0.758	0.00020341
0.745	0.00024428
0.732	0.00028311
0.719	0.00031810
0.706	0.00035583
0.693	0.00039215
0.68	0.00042541
0.667	0.00045668
0.654	0.00048889
0.641	0.00051820
0.628	0.00054854
0.615	0.00057760
0.602	0.00060597
0.589	0.00063392
0.576	0.00066426
0.563	0.00069067
0.55	0.00071536
0.537	0.00073981
0.524	0.00076356
0.511	0.00078695
0.498	0.00080953
0.485	0.00083194
0.472	0.00085251
0.459	0.00087381
0.446	0.00089423
0.433	0.00091303
0.42	0.00093172
0.407	0.00094998
0.394	0.00096837
0.381	0.00098537
0.368	0.00100304
0.355	0.00102171
0.342	0.00103726
0.329	0.00105019
0.316	0.00106576
0.303	0.00107755
0.29	0.00109167
0.277	0.00110499
0.264	0.00112015
0.251	0.00113360
0.238	0.00115053
0.225	0.00116381
0.212	0.00117673
0.199	0.00118696
0.186	0.00119981
0.173	0.00121075
0.16	0.00122167
0.147	0.00123360
0.134	0.00124324
0.121	0.00125356
0.108	0.00126407
0.09500000	0.00127381
0.08200000	0.00128311
0.06900000	0.00129269
0.05600000	0.00130443
0.04300000	0.00131211
0.03000000	0.00132074
0.01700000	0.00132998
0.00400000	0.00133824
-0.00900000	0.00134842
-0.02200000	0.00135656
-0.03500000	0.00136504
-0.04800000	0.00137194
-0.06100000	0.00137884
-0.07400000	0.00138555
-0.08700000	0.00139215
-0.1	0.00139846

File: FZ_006-4_ITO+SnO2+PVSK+PEAI+Spiro+Carbon (Dry Ice)  2024-06-19 11-09-37.txt
Device Id	Operator	Recipe
FZ_006-4_ITO+SnO2+PVSK+PEAI+Spiro+Carbon (Dry Ice) 	Unknown	Jacob PVSKT _ 0.08cm2 (nature recipe).IV

Sample Area	Irradiance	Pre sweep delay	Bias Direction	Max Reverse Bias	Max Forward Bias	Num Sweep Points	Dwell Time	Current Limit	PVIV 10A I-AMP	Average	Dark Current	Rshunt V-Lo	Rshunt V-Hi
0.080000	1.0000	0.5000	0	-0.1000	1.2000	101	10	130	0	1	0	-0.6000	-0.1000

Voc V	Isc A	Jsc mA/cm2	Imax A	Vmax V	Pmax mW	Fill Factor	Efficiency	R at Voc	R at Isc	Power W	RShunt ohms	Cell Temp start	Cell Temp end	Exposure	Time	Date
1.02847	0.00151784	18.9731	0.00123573	0.736121	0.909643	58.2710	11.3705	125.187	13875.157	0.00129911	NaN	NaN	NaN	8.500	11:09:37	06/19/2024

Vmeas	Imeas
1.2	-0.00155851
1.187	-0.00146653
1.174	-0.00135599
1.161	-0.00123514
1.148	-0.00110962
1.135	-0.00097972
1.122	-0.00085322
1.109	-0.00072512
1.096	-0.00059823
1.083	-0.00047331
1.07	-0.00035114
1.057	-0.00023231
1.044	-0.00011735
1.031	-0.00001203
1.018	0.00009423
1.005	0.00018861
0.992	0.00028680
0.979	0.00037879
0.966	0.00046524
0.953	0.00054581
0.94	0.00062111
0.927	0.00069054
0.914	0.00075468
0.901	0.00081382
0.888	0.00086848
0.875	0.00091820
0.862	0.00096383
0.849	0.00100523
0.836	0.00104345
0.823	0.00104657
0.81	0.00108477
0.797	0.00111840
0.784	0.00114876
0.771	0.00117593
0.758	0.00120030
0.745	0.00122276
0.732	0.00124356
0.719	0.00126277
0.706	0.00128005
0.693	0.00129622
0.68	0.00131144
0.667	0.00132515
0.654	0.00133817
0.641	0.00135022
0.628	0.00136117
0.615	0.00137106
0.602	0.00138130
0.589	0.00138945
0.576	0.00139849
0.563	0.00140654
0.55	0.00141309
0.537	0.00142063
0.524	0.00142709
0.511	0.00143260
0.498	0.00143787
0.485	0.00144362
0.472	0.00144868
0.459	0.00145327
0.446	0.00145740
0.433	0.00146192
0.42	0.00146594
0.407	0.00146918
0.394	0.00147291
0.381	0.00147617
0.368	0.00147872
0.355	0.00148143
0.342	0.00148450
0.329	0.00148729
0.316	0.00148956
0.303	0.00149149
0.29	0.00149332
0.277	0.00149528
0.264	0.00149709
0.251	0.00149823
0.238	0.00150015
0.225	0.00150200
0.212	0.00150362
0.199	0.00150482
0.186	0.00150576
0.173	0.00150737
0.16	0.00150840
0.147	0.00150927
0.134	0.00151055
0.121	0.00151123
0.108	0.00151246
0.09500000	0.00151275
0.08200000	0.00151374
0.06900000	0.00151468
0.05600000	0.00151510
0.04300000	0.00151589
0.03000000	0.00151680
0.01700000	0.00151747
0.00400000	0.00151744
-0.00900000	0.00151769
-0.02200000	0.00151923
-0.03500000	0.00151942
-0.04800000	0.00152010
-0.06100000	0.00152126
-0.07400000	0.00152110
-0.08700000	0.00152152
-0.1	0.00152171

File: FZ_006-4_ITO+SnO2+PVSK+PEAI+Spiro+Carbon (Dry Ice)  2024-06-19 11-10-32.txt
Device Id	Operator	Recipe
FZ_006-4_ITO+SnO2+PVSK+PEAI+Spiro+Carbon (Dry Ice) 	Unknown	Jacob PVSKT _ 0.08cm2 (nature recipe).IV

Sample Area	Irradiance	Pre sweep delay	Bias Direction	Max Reverse Bias	Max Forward Bias	Num Sweep Points	Dwell Time	Current Limit	PVIV 10A I-AMP	Average	Dark Current	Rshunt V-Lo	Rshunt V-Hi
0.080000	1.0000	0.5000	0	-0.1000	1.2000	101	10	130	0	1	0	-0.6000	-0.1000

Voc V	Isc A	Jsc mA/cm2	Imax A	Vmax V	Pmax mW	Fill Factor	Efficiency	R at Voc	R at Isc	Power W	RShunt ohms	Cell Temp start	Cell Temp end	Exposure	Time	Date
1.03387	0.00151304	18.9131	0.00122556	0.743412	0.911094	58.2434	11.3887	121.758	11585.601	0.00130126	NaN	NaN	NaN	8.375	11:10:32	06/19/2024

Vmeas	Imeas
1.2	-0.00156091
1.187	-0.00146194
1.174	-0.00134544
1.161	-0.00121949
1.148	-0.00108888
1.135	-0.00095535
1.122	-0.00082453
1.109	-0.00069318
1.096	-0.00056319
1.083	-0.00043587
1.07	-0.00031179
1.057	-0.00019124
1.044	-0.00007734
1.031	0.00003446
1.018	0.00013245
1.005	0.00023519
0.992	0.00033144
0.979	0.00042206
0.966	0.00050706
0.953	0.00058574
0.94	0.00065870
0.927	0.00072589
0.914	0.00078768
0.901	0.00084450
0.888	0.00089609
0.875	0.00094362
0.862	0.00098650
0.849	0.00102491
0.836	0.00105018
0.823	0.00106069
0.81	0.00109625
0.797	0.00112820
0.784	0.00115628
0.771	0.00118176
0.758	0.00120426
0.745	0.00122582
0.732	0.00124577
0.719	0.00126292
0.706	0.00127680
0.693	0.00129375
0.68	0.00130833
0.667	0.00132135
0.654	0.00133340
0.641	0.00134434
0.628	0.00135415
0.615	0.00136469
0.602	0.00137366
0.589	0.00138241
0.576	0.00139053
0.563	0.00139805
0.55	0.00140545
0.537	0.00141172
0.524	0.00141738
0.511	0.00142362
0.498	0.00142921
0.485	0.00143467
0.472	0.00143903
0.459	0.00144318
0.446	0.00144850
0.433	0.00145158
0.42	0.00145545
0.407	0.00145965
0.394	0.00146336
0.381	0.00146625
0.368	0.00146954
0.355	0.00147222
0.342	0.00147479
0.329	0.00147797
0.316	0.00148024
0.303	0.00148219
0.29	0.00148445
0.277	0.00148659
0.264	0.00148872
0.251	0.00149064
0.238	0.00149186
0.225	0.00149390
0.212	0.00149551
0.199	0.00149753
0.186	0.00149851
0.173	0.00150040
0.16	0.00150074
0.147	0.00150211
0.134	0.00150288
0.121	0.00150512
0.108	0.00150604
0.09500000	0.00150699
0.08200000	0.00150715
0.06900000	0.00150836
0.05600000	0.00150986
0.04300000	0.00151053
0.03000000	0.00151117
0.01700000	0.00151196
0.00400000	0.00151269
-0.00900000	0.00151447
-0.02200000	0.00151471
-0.03500000	0.00151537
-0.04800000	0.00151588
-0.06100000	0.00151689
-0.07400000	0.00151779
-0.08700000	0.00151768
-0.1	0.00151839

File: FZ_006-5_ITO+SnO2+PVSK+PEAI+Spiro+Carbon (Dry Ice)  2024-06-19 11-12-04.txt
Device Id	Operator	Recipe
FZ_006-5_ITO+SnO2+PVSK+PEAI+Spiro+Carbon (Dry Ice) 	Unknown	Jacob PVSKT _ 0.08cm2 (nature recipe).IV

Sample Area	Irradiance	Pre sweep delay	Bias Direction	Max Reverse Bias	Max Forward Bias	Num Sweep Points	Dwell Time	Current Limit	PVIV 10A I-AMP	Average	Dark Current	Rshunt V-Lo	Rshunt V-Hi
0.080000	1.0000	0.5000	0	-0.1000	1.2000	101	10	130	0	1	0	-0.6000	-0.1000

Voc V	Isc A	Jsc mA/cm2	Imax A	Vmax V	Pmax mW	Fill Factor	Efficiency	R at Voc	R at Isc	Power W	RShunt ohms	Cell Temp start	Cell Temp end	Exposure	Time	Date
1.04185	0.00150703	18.8379	0.00118242	0.736321	0.870644	55.4512	10.8830	128.56	8235.984	0.00127937	NaN	NaN	NaN	8.484	11:12:04	06/19/2024

Vmeas	Imeas
1.2	-0.00146390
1.187	-0.00135770
1.174	-0.00123837
1.161	-0.00111195
1.148	-0.00098403
1.135	-0.00085466
1.122	-0.00072339
1.109	-0.00059397
1.096	-0.00046716
1.083	-0.00034385
1.07	-0.00022454
1.057	-0.00010976
1.044	-0.00000396
1.031	0.00009435
1.018	0.00018632
1.005	0.00028134
0.992	0.00036963
0.979	0.00045163
0.966	0.00052804
0.953	0.00059841
0.94	0.00066235
0.927	0.00072226
0.914	0.00077697
0.901	0.00082674
0.888	0.00087274
0.875	0.00091490
0.862	0.00095296
0.849	0.00098834
0.836	0.00102089
0.823	0.00104943
0.81	0.00103860
0.797	0.00107185
0.784	0.00110118
0.771	0.00112732
0.758	0.00115085
0.745	0.00117233
0.732	0.00119084
0.719	0.00121006
0.706	0.00122744
0.693	0.00124339
0.68	0.00125894
0.667	0.00127360
0.654	0.00128649
0.641	0.00129881
0.628	0.00130993
0.615	0.00132104
0.602	0.00133198
0.589	0.00134173
0.576	0.00135103
0.563	0.00135938
0.55	0.00136719
0.537	0.00137518
0.524	0.00138330
0.511	0.00139074
0.498	0.00139661
0.485	0.00140248
0.472	0.00140866
0.459	0.00141481
0.446	0.00142031
0.433	0.00142518
0.42	0.00143014
0.407	0.00143478
0.394	0.00143919
0.381	0.00144369
0.368	0.00144712
0.355	0.00145115
0.342	0.00145377
0.329	0.00145742
0.316	0.00146070
0.303	0.00146375
0.29	0.00146722
0.277	0.00147027
0.264	0.00147272
0.251	0.00147531
0.238	0.00147727
0.225	0.00147992
0.212	0.00148206
0.199	0.00148424
0.186	0.00148646
0.173	0.00148842
0.16	0.00148970
0.147	0.00149167
0.134	0.00149369
0.121	0.00149526
0.108	0.00149699
0.09500000	0.00149856
0.08200000	0.00149985
0.06900000	0.00150118
0.05600000	0.00150252
0.04300000	0.00150342
0.03000000	0.00150465
0.01700000	0.00150558
0.00400000	0.00150713
-0.00900000	0.00150881
-0.02200000	0.00150957
-0.03500000	0.00151005
-0.04800000	0.00151124
-0.06100000	0.00151180
-0.07400000	0.00151316
-0.08700000	0.00151366
-0.1	0.00151455

File: FZ_006-6_ITO+SnO2+PVSK+PEAI+Spiro+Carbon (Dry Ice)  2024-06-19 11-13-20.txt
Device Id	Operator	Recipe
FZ_006-6_ITO+SnO2+PVSK+PEAI+Spiro+Carbon (Dry Ice) 	Unknown	Jacob PVSKT _ 0.08cm2 (nature recipe).IV

Sample Area	Irradiance	Pre sweep delay	Bias Direction	Max Reverse Bias	Max Forward Bias	Num Sweep Points	Dwell Time	Current Limit	PVIV 10A I-AMP	Average	Dark Current	Rshunt V-Lo	Rshunt V-Hi
0.080000	1.0000	0.5000	0	-0.1000	1.2000	101	10	130	0	1	0	-0.6000	-0.1000

Voc V	Isc A	Jsc mA/cm2	Imax A	Vmax V	Pmax mW	Fill Factor	Efficiency	R at Voc	R at Isc	Power W	RShunt ohms	Cell Temp start	Cell Temp end	Exposure	Time	Date
1.05559	0.00155173	19.3966	0.00118306	0.728801	0.862213	52.6384	10.7777	138.739	6413.884	0.00130203	NaN	NaN	NaN	8.547	11:13:20	06/19/2024

Vmeas	Imeas
1.2	-0.00124929
1.187	-0.00114214
1.174	-0.00102569
1.161	-0.00091026
1.148	-0.00078877
1.135	-0.00066659
1.122	-0.00054533
1.109	-0.00042707
1.096	-0.00031233
1.083	-0.00020175
1.07	-0.00009746
1.057	0.00000122
1.044	0.00009268
1.031	0.00017809
1.018	0.00026639
1.005	0.00034811
0.992	0.00042403
0.979	0.00049493
0.966	0.00056115
0.953	0.00062209
0.94	0.00067850
0.927	0.00073052
0.914	0.00077881
0.901	0.00082357
0.888	0.00086512
0.875	0.00090386
0.862	0.00093971
0.849	0.00097212
0.836	0.00100395
0.823	0.00103359
0.81	0.00105018
0.797	0.00105237
0.784	0.00108326
0.771	0.00111124
0.758	0.00113593
0.745	0.00115941
0.732	0.00118034
0.719	0.00120090
0.706	0.00121987
0.693	0.00123773
0.68	0.00125416
0.667	0.00126992
0.654	0.00128476
0.641	0.00129850
0.628	0.00131212
0.615	0.00132455
0.602	0.00133671
0.589	0.00134805
0.576	0.00135869
0.563	0.00136901
0.55	0.00137895
0.537	0.00138909
0.524	0.00139812
0.511	0.00140670
0.498	0.00141410
0.485	0.00142206
0.472	0.00142907
0.459	0.00143635
0.446	0.00144253
0.433	0.00144896
0.42	0.00145564
0.407	0.00146123
0.394	0.00146665
0.381	0.00147180
0.368	0.00147691
0.355	0.00148149
0.342	0.00148539
0.329	0.00149003
0.316	0.00149391
0.303	0.00149764
0.29	0.00150173
0.277	0.00150483
0.264	0.00150876
0.251	0.00151165
0.238	0.00151456
0.225	0.00151795
0.212	0.00152056
0.199	0.00152327
0.186	0.00152582
0.173	0.00152786
0.16	0.00153047
0.147	0.00153234
0.134	0.00153415
0.121	0.00153666
0.108	0.00153863
0.09500000	0.00154091
0.08200000	0.00154242
0.06900000	0.00154464
0.05600000	0.00154592
0.04300000	0.00154795
0.03000000	0.00154886
0.01700000	0.00155059
0.00400000	0.00155220
-0.00900000	0.00155378
-0.02200000	0.00155478
-0.03500000	0.00155540
-0.04800000	0.00155594
-0.06100000	0.00155733
-0.07400000	0.00155880
-0.08700000	0.00155996
-0.1	0.00156102

File: FZ_007-1_ITO+SnO2+PVSK+PEAI+Spiro+Carbon (LN2)  2024-06-19 11-15-33.txt
Device Id	Operator	Recipe
FZ_007-1_ITO+SnO2+PVSK+PEAI+Spiro+Carbon (LN2) 	Unknown	Jacob PVSKT _ 0.08cm2 (nature recipe).IV

Sample Area	Irradiance	Pre sweep delay	Bias Direction	Max Reverse Bias	Max Forward Bias	Num Sweep Points	Dwell Time	Current Limit	PVIV 10A I-AMP	Average	Dark Current	Rshunt V-Lo	Rshunt V-Hi
0.080000	1.0000	0.5000	0	-0.1000	1.2000	101	10	130	0	1	0	-0.6000	-0.1000

Voc V	Isc A	Jsc mA/cm2	Imax A	Vmax V	Pmax mW	Fill Factor	Efficiency	R at Voc	R at Isc	Power W	RShunt ohms	Cell Temp start	Cell Temp end	Exposure	Time	Date
0.487345	0.00068478	8.55973	0.00035220	0.251231	0.08848352	26.5141	1.1060	665.872	778.603	0.00017306	NaN	NaN	NaN	8.422	11:15:33	06/19/2024

Vmeas	Imeas
1.2	-0.00243366
1.187	-0.00234626
1.174	-0.00225884
1.161	-0.00217909
1.148	-0.00209526
1.135	-0.00201657
1.122	-0.00193523
1.109	-0.00186286
1.096	-0.00178970
1.083	-0.00171703
1.07	-0.00164701
1.057	-0.00157891
1.044	-0.00150994
1.031	-0.00144416
1.018	-0.00138033
1.005	-0.00131639
0.992	-0.00125610
0.979	-0.00119675
0.966	-0.00114148
0.953	-0.00108725
0.94	-0.00103446
0.927	-0.00098617
0.914	-0.00093696
0.901	-0.00089017
0.888	-0.00084659
0.875	-0.00080489
0.862	-0.00076556
0.849	-0.00072688
0.836	-0.00068964
0.823	-0.00065512
0.81	-0.00062090
0.797	-0.00058875
0.784	-0.00055765
0.771	-0.00052575
0.758	-0.00049585
0.745	-0.00046582
0.732	-0.00043719
0.719	-0.00040932
0.706	-0.00038208
0.693	-0.00035499
0.68	-0.00032971
0.667	-0.00030544
0.654	-0.00028112
0.641	-0.00025685
0.628	-0.00023333
0.615	-0.00021021
0.602	-0.00018720
0.589	-0.00016435
0.576	-0.00014093
0.563	-0.00012005
0.55	-0.00009998
0.537	-0.00007780
0.524	-0.00005623
0.511	-0.00003495
0.498	-0.00001361
0.485	0.00000379
0.472	0.00002049
0.459	0.00004228
0.446	0.00006288
0.433	0.00008415
0.42	0.00010435
0.407	0.00012074
0.394	0.00014162
0.381	0.00016213
0.368	0.00018247
0.355	0.00020211
0.342	0.00022150
0.329	0.00024062
0.316	0.00025988
0.303	0.00027839
0.29	0.00029731
0.277	0.00031584
0.264	0.00033436
0.251	0.00035236
0.238	0.00037068
0.225	0.00038858
0.212	0.00040598
0.199	0.00042403
0.186	0.00044174
0.173	0.00045906
0.16	0.00047645
0.147	0.00049407
0.134	0.00051132
0.121	0.00052865
0.108	0.00054565
0.09500000	0.00056259
0.08200000	0.00057951
0.06900000	0.00059636
0.05600000	0.00061319
0.04300000	0.00062985
0.03000000	0.00064621
0.01700000	0.00066292
0.00400000	0.00067949
-0.00900000	0.00069683
-0.02200000	0.00071274
-0.03500000	0.00072906
-0.04800000	0.00074531
-0.06100000	0.00076202
-0.07400000	0.00077833
-0.08700000	0.00079479
-0.1	0.00081099

File: FZ_007-2_ITO+SnO2+PVSK+PEAI+Spiro+Carbon (LN2)  2024-06-19 11-16-17.txt
Device Id	Operator	Recipe
FZ_007-2_ITO+SnO2+PVSK+PEAI+Spiro+Carbon (LN2) 	Unknown	Jacob PVSKT _ 0.08cm2 (nature recipe).IV

Sample Area	Irradiance	Pre sweep delay	Bias Direction	Max Reverse Bias	Max Forward Bias	Num Sweep Points	Dwell Time	Current Limit	PVIV 10A I-AMP	Average	Dark Current	Rshunt V-Lo	Rshunt V-Hi
0.080000	1.0000	0.5000	0	-0.1000	1.2000	101	10	130	0	1	0	-0.6000	-0.1000

Voc V	Isc A	Jsc mA/cm2	Imax A	Vmax V	Pmax mW	Fill Factor	Efficiency	R at Voc	R at Isc	Power W	RShunt ohms	Cell Temp start	Cell Temp end	Exposure	Time	Date
0.334664	0.00079812	9.97647	0.00040340	0.168798	0.06809335	25.4935	0.8512	395.555	430.694	0.00013511	NaN	NaN	NaN	8.219	11:16:17	06/19/2024

Vmeas	Imeas
1.2	-0.00447108
1.187	-0.00432103
1.174	-0.00417911
1.161	-0.00403849
1.148	-0.00390103
1.135	-0.00376535
1.122	-0.00363029
1.109	-0.00350105
1.096	-0.00337343
1.083	-0.00324599
1.07	-0.00312424
1.057	-0.00300437
1.044	-0.00288580
1.031	-0.00277208
1.018	-0.00266057
1.005	-0.00255568
0.992	-0.00245212
0.979	-0.00235512
0.966	-0.00225988
0.953	-0.00216985
0.94	-0.00208634
0.927	-0.00200441
0.914	-0.00192493
0.901	-0.00185016
0.888	-0.00177992
0.875	-0.00171297
0.862	-0.00164794
0.849	-0.00158823
0.836	-0.00152787
0.823	-0.00147088
0.81	-0.00141727
0.797	-0.00136433
0.784	-0.00131332
0.771	-0.00126388
0.758	-0.00121609
0.745	-0.00116870
0.732	-0.00112317
0.719	-0.00107869
0.706	-0.00103495
0.693	-0.00099874
0.68	-0.00095469
0.667	-0.00091168
0.654	-0.00087074
0.641	-0.00083010
0.628	-0.00079056
0.615	-0.00075165
0.602	-0.00071377
0.589	-0.00067566
0.576	-0.00063832
0.563	-0.00060101
0.55	-0.00056406
0.537	-0.00052737
0.524	-0.00049147
0.511	-0.00045623
0.498	-0.00042131
0.485	-0.00038589
0.472	-0.00035166
0.459	-0.00031703
0.446	-0.00028260
0.433	-0.00024825
0.42	-0.00021428
0.407	-0.00018047
0.394	-0.00014713
0.381	-0.00011393
0.368	-0.00008488
0.355	-0.00005112
0.342	-0.00001830
0.329	0.00001475
0.316	0.00004746
0.303	0.00007941
0.29	0.00010607
0.277	0.00013891
0.264	0.00017161
0.251	0.00020382
0.238	0.00023594
0.225	0.00026792
0.212	0.00029946
0.199	0.00033096
0.186	0.00036235
0.173	0.00039329
0.16	0.00042440
0.147	0.00045468
0.134	0.00048564
0.121	0.00051667
0.108	0.00054728
0.09500000	0.00057768
0.08200000	0.00060779
0.06900000	0.00063824
0.05600000	0.00066852
0.04300000	0.00069861
0.03000000	0.00072875
0.01700000	0.00075870
0.00400000	0.00078872
-0.00900000	0.00081907
-0.02200000	0.00084917
-0.03500000	0.00087894
-0.04800000	0.00090855
-0.06100000	0.00093892
-0.07400000	0.00096845
-0.08700000	0.00099851
-0.1	0.00102863

File: FZ_007-3_ITO+SnO2+PVSK+PEAI+Spiro+Carbon (LN2)  2024-06-19 11-16-45.txt
Device Id	Operator	Recipe
FZ_007-3_ITO+SnO2+PVSK+PEAI+Spiro+Carbon (LN2) 	Unknown	Jacob PVSKT _ 0.08cm2 (nature recipe).IV

Sample Area	Irradiance	Pre sweep delay	Bias Direction	Max Reverse Bias	Max Forward Bias	Num Sweep Points	Dwell Time	Current Limit	PVIV 10A I-AMP	Average	Dark Current	Rshunt V-Lo	Rshunt V-Hi
0.080000	1.0000	0.5000	0	-0.1000	1.2000	101	10	130	0	1	0	-0.6000	-0.1000

Voc V	Isc A	Jsc mA/cm2	Imax A	Vmax V	Pmax mW	Fill Factor	Efficiency	R at Voc	R at Isc	Power W	RShunt ohms	Cell Temp start	Cell Temp end	Exposure	Time	Date
0.606119	0.00079723	9.9654	0.00042607	0.330425	0.140783	29.1345	1.7598	519.539	984.760	0.00026713	NaN	NaN	NaN	8.219	11:16:45	06/19/2024

Vmeas	Imeas
1.2	-0.00370378
1.187	-0.00346924
1.174	-0.00315851
1.161	-0.00302936
1.148	-0.00288409
1.135	-0.00275139
1.122	-0.00261979
1.109	-0.00248295
1.096	-0.00235563
1.083	-0.00223173
1.07	-0.00210754
1.057	-0.00198959
1.044	-0.00187212
1.031	-0.00176302
1.018	-0.00165218
1.005	-0.00154958
0.992	-0.00144828
0.979	-0.00135188
0.966	-0.00126439
0.953	-0.00117645
0.94	-0.00109812
0.927	-0.00101933
0.914	-0.00094754
0.901	-0.00087859
0.888	-0.00081211
0.875	-0.00075008
0.862	-0.00069255
0.849	-0.00064033
0.836	-0.00058759
0.823	-0.00054047
0.81	-0.00049590
0.797	-0.00045502
0.784	-0.00041374
0.771	-0.00037568
0.758	-0.00033908
0.745	-0.00030320
0.732	-0.00026857
0.719	-0.00023610
0.706	-0.00020406
0.693	-0.00017479
0.68	-0.00014441
0.667	-0.00011628
0.654	-0.00009696
0.641	-0.00006752
0.628	-0.00004063
0.615	-0.00001545
0.602	0.00001076
0.589	0.00003486
0.576	0.00005890
0.563	0.00008210
0.55	0.00010439
0.537	0.00011700
0.524	0.00014093
0.511	0.00016401
0.498	0.00018624
0.485	0.00020697
0.472	0.00022807
0.459	0.00024716
0.446	0.00026699
0.433	0.00028674
0.42	0.00030557
0.407	0.00032385
0.394	0.00034156
0.381	0.00035926
0.368	0.00037679
0.355	0.00039397
0.342	0.00041137
0.329	0.00042794
0.316	0.00044414
0.303	0.00046090
0.29	0.00047733
0.277	0.00049278
0.264	0.00050848
0.251	0.00052432
0.238	0.00053914
0.225	0.00055516
0.212	0.00056959
0.199	0.00058494
0.186	0.00059964
0.173	0.00061456
0.16	0.00062885
0.147	0.00064330
0.134	0.00065732
0.121	0.00067117
0.108	0.00068542
0.09500000	0.00069914
0.08200000	0.00071253
0.06900000	0.00072642
0.05600000	0.00074011
0.04300000	0.00075348
0.03000000	0.00076684
0.01700000	0.00077982
0.00400000	0.00079291
-0.00900000	0.00080715
-0.02200000	0.00081951
-0.03500000	0.00083247
-0.04800000	0.00084549
-0.06100000	0.00085885
-0.07400000	0.00087186
-0.08700000	0.00088518
-0.1	0.00089841