Folder: YanLab/Data/AD_2024_04_18/IV_data/2024-04-18

Note: README.md
# YanLab
Projects for the Feng Yan Lab

File: AD001-1_ITO+SnO2+PVSK+C6Br+Spiro+Carbon (Air Quench)  2024-04-18 20-16-15.txt
Device Id	Operator	Recipe
AD001-1_ITO+SnO2+PVSK+C6Br+Spiro+Carbon (Air Quench) 	Unknown	Jacob PVSKT _ 0.077cm^2 (nature recipe).IV

Sample Area	Irradiance	Pre sweep delay	Bias Direction	Max Reverse Bias	Max Forward Bias	Num Sweep Points	Dwell Time	Current Limit	PVIV 10A I-AMP	Average	Dark Current	Rshunt V-Lo	Rshunt V-Hi
0.077170	1.0000	0.2000	0	-0.1000	1.2000	65	10	130	0	1	0	-0.6000	-0.1000

Voc V	Isc A	Jsc mA/cm2	Imax A	Vmax V	Pmax mW	Fill Factor	Efficiency	R at Voc	R at Isc	Power W	RShunt ohms	Cell Temp start	Cell Temp end	Exposure	Time	Date
0.980906	0.00153971	19.9522	0.00124262	0.727971	0.904591	59.8942	11.7221	115.959	6822.946	0.00125544	NaN	NaN	NaN	5.734	20:16:15	04/18/2024

Vmeas	Imeas
1.2	-0.00241021
1.1797	-0.00215464
1.15935	-0.00190132
1.13905	-0.00165752
1.11875	-0.00141771
1.09845	-0.00118512
1.0781	-0.00095498
1.0578	-0.00073777
1.0375	-0.00052968
1.0172	-0.00032732
0.99685	-0.00013584
0.97655	0.00004265
0.95625	0.00021392
0.93595	0.00037328
0.9156	0.00051954
0.8953	0.00065050
0.875	0.00077077
0.8547	0.00087422
0.83435	0.00096597
0.81405	0.00103915
0.79375	0.00108767
0.77345	0.00114605
0.7531	0.00119620
0.7328	0.00123635
0.7125	0.00126702
0.6922	0.00129340
0.67185	0.00131597
0.65155	0.00133487
0.63125	0.00135238
0.61095	0.00136622
0.5906	0.00137894
0.5703	0.00139281
0.55	0.00140378
0.5297	0.00141336
0.50935	0.00142272
0.48905	0.00143142
0.46875	0.00143995
0.44845	0.00144772
0.4281	0.00145561
0.4078	0.00146187
0.3875	0.00146758
0.3672	0.00147401
0.3469	0.00147909
0.32655	0.00148388
0.30625	0.00148931
0.28595	0.00149355
0.26565	0.00149777
0.2453	0.00150230
0.225	0.00150662
0.2047	0.00151043
0.1844	0.00151403
0.16405	0.00151723
0.14375	0.00151994
0.12345	0.00152370
0.10315	0.00152698
0.08280000	0.00152947
0.06250000	0.00153237
0.04220000	0.00153514
0.02190000	0.00153710
0.00155000	0.00153931
-0.01875000	0.00154552
-0.03905000	0.00154484
-0.05935000	0.00154674
-0.07970000	0.00154819
-0.1	0.00155049

File: AD001-2_ITO+SnO2+PVSK+C6Br+Spiro+Carbon (Air Quench)  2024-04-18 20-20-23.txt
Device Id	Operator	Recipe
AD001-2_ITO+SnO2+PVSK+C6Br+Spiro+Carbon (Air Quench) 	Unknown	Jacob PVSKT _ 0.077cm^2 (nature recipe).IV

Sample Area	Irradiance	Pre sweep delay	Bias Direction	Max Reverse Bias	Max Forward Bias	Num Sweep Points	Dwell Time	Current Limit	PVIV 10A I-AMP	Average	Dark Current	Rshunt V-Lo	Rshunt V-Hi
0.077170	1.0000	0.2000	0	-0.1000	1.2000	65	10	130	0	1	0	-0.6000	-0.1000

Voc V	Isc A	Jsc mA/cm2	Imax A	Vmax V	Pmax mW	Fill Factor	Efficiency	R at Voc	R at Isc	Power W	RShunt ohms	Cell Temp start	Cell Temp end	Exposure	Time	Date
0.992658	0.00151315	19.6081	0.00131367	0.770817	1.0126	67.4147	13.1217	95.0775	14706.774	0.00131337	NaN	NaN	NaN	5.750	20:20:23	04/18/2024

Vmeas	Imeas
1.2	-0.00267345
1.1797	-0.00237564
1.15935	-0.00208330
1.13905	-0.00179871
1.11875	-0.00152137
1.09845	-0.00125104
1.0781	-0.00098603
1.0578	-0.00073248
1.0375	-0.00048935
1.0172	-0.00025708
0.99685	-0.00003684
0.97655	0.00017062
0.95625	0.00036496
0.93595	0.00054205
0.9156	0.00070110
0.8953	0.00084237
0.875	0.00096403
0.8547	0.00105913
0.83435	0.00114626
0.81405	0.00121443
0.79375	0.00126791
0.77345	0.00130943
0.7531	0.00134040
0.7328	0.00136442
0.7125	0.00138255
0.6922	0.00139720
0.67185	0.00140874
0.65155	0.00141824
0.63125	0.00142660
0.61095	0.00143276
0.5906	0.00143906
0.5703	0.00144464
0.55	0.00144861
0.5297	0.00145354
0.50935	0.00145767
0.48905	0.00146186
0.46875	0.00146582
0.44845	0.00146922
0.4281	0.00147227
0.4078	0.00147547
0.3875	0.00147882
0.3672	0.00148103
0.3469	0.00148414
0.32655	0.00148618
0.30625	0.00148821
0.28595	0.00149171
0.26565	0.00149389
0.2453	0.00149562
0.225	0.00149751
0.2047	0.00149940
0.1844	0.00150107
0.16405	0.00150274
0.14375	0.00150422
0.12345	0.00150573
0.10315	0.00150691
0.08280000	0.00150825
0.06250000	0.00151015
0.04220000	0.00151130
0.02190000	0.00151233
0.00155000	0.00151364
-0.01875000	0.00151641
-0.03905000	0.00151551
-0.05935000	0.00151568
-0.07970000	0.00151689
-0.1	0.00151769

File: AD002-1_ITO+SnO2+PVSK+C6Br+Spiro+Carbon (Air Quench)  2024-04-18 20-27-18.txt
Device Id	Operator	Recipe
AD002-1_ITO+SnO2+PVSK+C6Br+Spiro+Carbon (Air Quench) 	Unknown	Jacob PVSKT _ 0.077cm^2 (nature recipe).IV

Sample Area	Irradiance	Pre sweep delay	Bias Direction	Max Reverse Bias	Max Forward Bias	Num Sweep Points	Dwell Time	Current Limit	PVIV 10A I-AMP	Average	Dark Current	Rshunt V-Lo	Rshunt V-Hi
0.077170	1.0000	0.2000	0	-0.1000	1.2000	65	10	130	0	1	0	-0.6000	-0.1000

Voc V	Isc A	Jsc mA/cm2	Imax A	Vmax V	Pmax mW	Fill Factor	Efficiency	R at Voc	R at Isc	Power W	RShunt ohms	Cell Temp start	Cell Temp end	Exposure	Time	Date
0.983859	0.00166879	21.6249	0.00127077	0.549764	0.698623	42.5508	9.0530	340.773	3472.171	0.00113112	NaN	NaN	NaN	5.672	20:27:18	04/18/2024

Vmeas	Imeas
1.2	-0.00065548
1.1797	-0.00059083
1.15935	-0.00051929
1.13905	-0.00046077
1.11875	-0.00039835
1.09845	-0.00033631
1.0781	-0.00027644
1.0578	-0.00021619
1.0375	-0.00015617
1.0172	-0.00009713
0.99685	-0.00003834
0.97655	0.00002002
0.95625	0.00007874
0.93595	0.00013731
0.9156	0.00020273
0.8953	0.00026212
0.875	0.00031216
0.8547	0.00037146
0.83435	0.00043166
0.81405	0.00049451
0.79375	0.00056108
0.77345	0.00061467
0.7531	0.00067513
0.7328	0.00074822
0.7125	0.00082087
0.6922	0.00088345
0.67185	0.00092656
0.65155	0.00097127
0.63125	0.00104375
0.61095	0.00110147
0.5906	0.00116494
0.5703	0.00121690
0.55	0.00127378
0.5297	0.00131278
0.50935	0.00135408
0.48905	0.00138723
0.46875	0.00142450
0.44845	0.00145805
0.4281	0.00148222
0.4078	0.00150349
0.3875	0.00151991
0.3672	0.00153850
0.3469	0.00155227
0.32655	0.00156331
0.30625	0.00157260
0.28595	0.00158252
0.26565	0.00158856
0.2453	0.00159703
0.225	0.00160400
0.2047	0.00161119
0.1844	0.00161571
0.16405	0.00162119
0.14375	0.00163282
0.12345	0.00163171
0.10315	0.00163838
0.08280000	0.00164724
0.06250000	0.00164868
0.04220000	0.00165602
0.02190000	0.00166787
0.00155000	0.00167800
-0.01875000	0.00168066
-0.03905000	0.00168248
-0.05935000	0.00168458
-0.07970000	0.00168453
-0.1	0.00168718

File: AD002-2_ITO+SnO2+PVSK+C6Br+Spiro+Carbon (Air Quench)  2024-04-18 20-28-38.txt
Device Id	Operator	Recipe
AD002-2_ITO+SnO2+PVSK+C6Br+Spiro+Carbon (Air Quench) 	Unknown	Jacob PVSKT _ 0.077cm^2 (nature recipe).IV

Sample Area	Irradiance	Pre sweep delay	Bias Direction	Max Reverse Bias	Max Forward Bias	Num Sweep Points	Dwell Time	Current Limit	PVIV 10A I-AMP	Average	Dark Current	Rshunt V-Lo	Rshunt V-Hi
0.077170	1.0000	0.2000	0	-0.1000	1.2000	65	10	130	0	1	0	-0.6000	-0.1000

Voc V	Isc A	Jsc mA/cm2	Imax A	Vmax V	Pmax mW	Fill Factor	Efficiency	R at Voc	R at Isc	Power W	RShunt ohms	Cell Temp start	Cell Temp end	Exposure	Time	Date
0.956742	0.00126618	16.4077	0.00109326	0.554905	0.606655	50.0784	7.8613	373.183	1550.310	0.00087887	NaN	NaN	NaN	5.891	20:28:38	04/18/2024

Vmeas	Imeas
1.2	-0.00058725
1.1797	-0.00055177
1.15935	-0.00050068
1.13905	-0.00044277
1.11875	-0.00038669
1.09845	-0.00042832
1.0781	-0.00038232
1.0578	-0.00021834
1.0375	-0.00016385
1.0172	-0.00010939
0.99685	-0.00005470
0.97655	-0.00000038
0.95625	-0.00006440
0.93595	-0.00001229
0.9156	0.00003930
0.8953	0.00021182
0.875	0.00026611
0.8547	0.00028291
0.83435	0.00022775
0.81405	0.00026921
0.79375	0.00031145
0.77345	0.00036186
0.7531	0.00040603
0.7328	0.00045135
0.7125	0.00068660
0.6922	0.00075174
0.67185	0.00081267
0.65155	0.00087003
0.63125	0.00092286
0.61095	0.00097349
0.5906	0.00102106
0.5703	0.00105059
0.55	0.00110842
0.5297	0.00114170
0.50935	0.00117151
0.48905	0.00119922
0.46875	0.00122039
0.44845	0.00124010
0.4281	0.00125599
0.4078	0.00126687
0.3875	0.00128230
0.3672	0.00129485
0.3469	0.00130431
0.32655	0.00131571
0.30625	0.00132396
0.28595	0.00112751
0.26565	0.00112003
0.2453	0.00111978
0.225	0.00113952
0.2047	0.00115168
0.1844	0.00115558
0.16405	0.00116441
0.14375	0.00117082
0.12345	0.00118373
0.10315	0.00120059
0.08280000	0.00121138
0.06250000	0.00122728
0.04220000	0.00123904
0.02190000	0.00124812
0.00155000	0.00126014
-0.01875000	0.00138613
-0.03905000	0.00130173
-0.05935000	0.00130928
-0.07970000	0.00131702
-0.1	0.00132403

File: AD002-3_ITO+SnO2+PVSK+C6Br+Spiro+Carbon (Air Quench)  2024-04-18 20-31-00.txt
Device Id	Operator	Recipe
AD002-3_ITO+SnO2+PVSK+C6Br+Spiro+Carbon (Air Quench) 	Unknown	Jacob PVSKT _ 0.077cm^2 (nature recipe).IV

Sample Area	Irradiance	Pre sweep delay	Bias Direction	Max Reverse Bias	Max Forward Bias	Num Sweep Points	Dwell Time	Current Limit	PVIV 10A I-AMP	Average	Dark Current	Rshunt V-Lo	Rshunt V-Hi
0.077170	1.0000	0.2000	0	-0.1000	1.2000	65	10	130	0	1	0	-0.6000	-0.1000

Voc V	Isc A	Jsc mA/cm2	Imax A	Vmax V	Pmax mW	Fill Factor	Efficiency	R at Voc	R at Isc	Power W	RShunt ohms	Cell Temp start	Cell Temp end	Exposure	Time	Date
0.989617	0.00176530	22.8755	0.00156285	0.780452	1.21973	69.8195	15.8057	80.1717	16030.189	0.00154567	NaN	NaN	NaN	5.750	20:31:00	04/18/2024

Vmeas	Imeas
1.2	-0.00311784
1.1797	-0.00279021
1.15935	-0.00246372
1.13905	-0.00214269
1.11875	-0.00182752
1.09845	-0.00151820
1.0781	-0.00121514
1.0578	-0.00091620
1.0375	-0.00062978
1.0172	-0.00035313
0.99685	-0.00008709
0.97655	0.00016643
0.95625	0.00040617
0.93595	0.00062818
0.9156	0.00082888
0.8953	0.00100906
0.875	0.00115413
0.8547	0.00128711
0.83435	0.00139297
0.81405	0.00147414
0.79375	0.00153368
0.77345	0.00157606
0.7531	0.00160608
0.7328	0.00162885
0.7125	0.00164478
0.6922	0.00165687
0.67185	0.00166623
0.65155	0.00167432
0.63125	0.00168147
0.61095	0.00168684
0.5906	0.00169324
0.5703	0.00169833
0.55	0.00170319
0.5297	0.00170787
0.50935	0.00171217
0.48905	0.00171584
0.46875	0.00171955
0.44845	0.00172316
0.4281	0.00172667
0.4078	0.00172976
0.3875	0.00173232
0.3672	0.00173521
0.3469	0.00173790
0.32655	0.00174050
0.30625	0.00174291
0.28595	0.00174523
0.26565	0.00174706
0.2453	0.00174897
0.225	0.00175079
0.2047	0.00175262
0.1844	0.00175434
0.16405	0.00175661
0.14375	0.00175730
0.12345	0.00175917
0.10315	0.00175992
0.08280000	0.00176140
0.06250000	0.00176312
0.04220000	0.00176370
0.02190000	0.00176388
0.00155000	0.00176527
-0.01875000	0.00176683
-0.03905000	0.00176719
-0.05935000	0.00176855
-0.07970000	0.00176885
-0.1	0.00176929

File: AD003-1_ITO+SnO2+PVSK+C6Br+Spiro+Carbon (Air Quench)  2024-04-18 20-34-08.txt
Device Id	Operator	Recipe
AD003-1_ITO+SnO2+PVSK+C6Br+Spiro+Carbon (Air Quench) 	Unknown	Jacob PVSKT _ 0.077cm^2 (nature recipe).IV

Sample Area	Irradiance	Pre sweep delay	Bias Direction	Max Reverse Bias	Max Forward Bias	Num Sweep Points	Dwell Time	Current Limit	PVIV 10A I-AMP	Average	Dark Current	Rshunt V-Lo	Rshunt V-Hi
0.077170	1.0000	0.2000	0	-0.1000	1.2000	65	10	130	0	1	0	-0.6000	-0.1000

Voc V	Isc A	Jsc mA/cm2	Imax A	Vmax V	Pmax mW	Fill Factor	Efficiency	R at Voc	R at Isc	Power W	RShunt ohms	Cell Temp start	Cell Temp end	Exposure	Time	Date
1.01902	0.00144361	18.7069	0.00131769	0.810534	1.06803	72.6024	13.8400	92.3855	35563.096	0.00132529	NaN	NaN	NaN	5.750	20:34:08	04/18/2024

Vmeas	Imeas
1.2	-0.00233012
1.1797	-0.00204565
1.15935	-0.00176122
1.13905	-0.00148363
1.11875	-0.00121214
1.09845	-0.00094336
1.0781	-0.00068612
1.0578	-0.00043749
1.0375	-0.00019920
1.0172	0.00002735
0.99685	0.00024101
0.97655	0.00044160
0.95625	0.00062415
0.93595	0.00078753
0.9156	0.00092993
0.8953	0.00104853
0.875	0.00113660
0.8547	0.00121402
0.83435	0.00127137
0.81405	0.00131157
0.79375	0.00134031
0.77345	0.00135968
0.7531	0.00137453
0.7328	0.00138346
0.7125	0.00139088
0.6922	0.00139683
0.67185	0.00140099
0.65155	0.00140439
0.63125	0.00140799
0.61095	0.00141044
0.5906	0.00141274
0.5703	0.00141521
0.55	0.00141781
0.5297	0.00141856
0.50935	0.00142052
0.48905	0.00142280
0.46875	0.00142406
0.44845	0.00142555
0.4281	0.00142691
0.4078	0.00142745
0.3875	0.00142925
0.3672	0.00143046
0.3469	0.00143187
0.32655	0.00143272
0.30625	0.00143390
0.28595	0.00143486
0.26565	0.00143571
0.2453	0.00143618
0.225	0.00143688
0.2047	0.00143783
0.1844	0.00143851
0.16405	0.00143905
0.14375	0.00144035
0.12345	0.00144056
0.10315	0.00144163
0.08280000	0.00144122
0.06250000	0.00144233
0.04220000	0.00144311
0.02190000	0.00144346
0.00155000	0.00144409
-0.01875000	0.00144450
-0.03905000	0.00144438
-0.05935000	0.00144491
-0.07970000	0.00144474
-0.1	0.00144563

File: AD003-2_ITO+SnO2+PVSK+C6Br+Spiro+Carbon (Air Quench)  2024-04-18 20-35-07.txt
Device Id	Operator	Recipe
AD003-2_ITO+SnO2+PVSK+C6Br+Spiro+Carbon (Air Quench) 	Unknown	Jacob PVSKT _ 0.077cm^2 (nature recipe).IV

Sample Area	Irradiance	Pre sweep delay	Bias Direction	Max Reverse Bias	Max Forward Bias	Num Sweep Points	Dwell Time	Current Limit	PVIV 10A I-AMP	Average	Dark Current	Rshunt V-Lo	Rshunt V-Hi
0.077170	1.0000	0.2000	0	-0.1000	1.2000	65	10	130	0	1	0	-0.6000	-0.1000

Voc V	Isc A	Jsc mA/cm2	Imax A	Vmax V	Pmax mW	Fill Factor	Efficiency	R at Voc	R at Isc	Power W	RShunt ohms	Cell Temp start	Cell Temp end	Exposure	Time	Date
0.95584	0.00141853	18.3819	0.00108391	0.705086	0.764249	56.3650	9.9034	144.664	1102.829	0.00102206	NaN	NaN	NaN	6.219	20:35:07	04/18/2024

Vmeas	Imeas
1.2	-0.00198355
1.1797	-0.00190091
1.15935	-0.00175147
1.13905	-0.00159890
1.11875	-0.00138139
1.09845	-0.00119938
1.0781	-0.00100679
1.0578	-0.00120799
1.0375	-0.00167899
1.0172	-0.00153747
0.99685	-0.00135889
0.97655	-0.00014727
0.95625	-0.00000326
0.93595	0.00013917
0.9156	0.00027731
0.8953	0.00040596
0.875	0.00052395
0.8547	0.00063093
0.83435	0.00072383
0.81405	0.00080914
0.79375	0.00070833
0.77345	0.00018856
0.7531	0.00098383
0.7328	0.00104787
0.7125	0.00032068
0.6922	0.00109101
0.67185	0.00113507
0.65155	0.00117150
0.63125	0.00119824
0.61095	0.00122251
0.5906	0.00124102
0.5703	0.00125871
0.55	0.00127251
0.5297	0.00128723
0.50935	0.00130120
0.48905	0.00131346
0.46875	0.00132559
0.44845	0.00133663
0.4281	0.00134711
0.4078	0.00135692
0.3875	0.00136542
0.3672	0.00137255
0.3469	0.00117019
0.32655	0.00111849
0.30625	0.00111416
0.28595	0.00114105
0.26565	0.00115424
0.2453	0.00117314
0.225	0.00119255
0.2047	0.00121373
0.1844	0.00123669
0.16405	0.00125742
0.14375	0.00127602
0.12345	0.00129797
0.10315	0.00131783
0.08280000	0.00133850
0.06250000	0.00136046
0.04220000	0.00138072
0.02190000	0.00140026
0.00155000	0.00141981
-0.01875000	0.00143944
-0.03905000	0.00145635
-0.05935000	0.00147468
-0.07970000	0.00149291
-0.1	0.00150008

File: AD003-3_ITO+SnO2+PVSK+C6Br+Spiro+Carbon (Air Quench)  2024-04-18 20-37-58.txt
Device Id	Operator	Recipe
AD003-3_ITO+SnO2+PVSK+C6Br+Spiro+Carbon (Air Quench) 	Unknown	Jacob PVSKT _ 0.077cm^2 (nature recipe).IV

Sample Area	Irradiance	Pre sweep delay	Bias Direction	Max Reverse Bias	Max Forward Bias	Num Sweep Points	Dwell Time	Current Limit	PVIV 10A I-AMP	Average	Dark Current	Rshunt V-Lo	Rshunt V-Hi
0.077170	1.0000	0.2000	0	-0.1000	1.2000	65	10	130	0	1	0	-0.6000	-0.1000

Voc V	Isc A	Jsc mA/cm2	Imax A	Vmax V	Pmax mW	Fill Factor	Efficiency	R at Voc	R at Isc	Power W	RShunt ohms	Cell Temp start	Cell Temp end	Exposure	Time	Date
0.993333	0.00143345	18.5752	0.00120527	0.765364	0.922473	64.7855	11.9538	104.645	12844.808	0.00122794	NaN	NaN	NaN	5.734	20:37:58	04/18/2024

Vmeas	Imeas
1.2	-0.00238760
1.1797	-0.00213926
1.15935	-0.00188518
1.13905	-0.00163063
1.11875	-0.00138188
1.09845	-0.00113787
1.0781	-0.00089413
1.0578	-0.00066438
1.0375	-0.00044211
1.0172	-0.00022743
0.99685	-0.00002380
0.97655	0.00015815
0.95625	0.00033994
0.93595	0.00050590
0.9156	0.00065331
0.8953	0.00078267
0.875	0.00089398
0.8547	0.00098621
0.83435	0.00105019
0.81405	0.00110140
0.79375	0.00115328
0.77345	0.00119294
0.7531	0.00122316
0.7328	0.00124660
0.7125	0.00126600
0.6922	0.00128226
0.67185	0.00129501
0.65155	0.00130706
0.63125	0.00131804
0.61095	0.00132777
0.5906	0.00133592
0.5703	0.00134439
0.55	0.00135091
0.5297	0.00135756
0.50935	0.00136335
0.48905	0.00136867
0.46875	0.00137338
0.44845	0.00137876
0.4281	0.00138398
0.4078	0.00138883
0.3875	0.00139175
0.3672	0.00139596
0.3469	0.00140036
0.32655	0.00140328
0.30625	0.00140601
0.28595	0.00140814
0.26565	0.00141050
0.2453	0.00141220
0.225	0.00141362
0.2047	0.00141728
0.1844	0.00141943
0.16405	0.00142211
0.14375	0.00142546
0.12345	0.00142646
0.10315	0.00142809
0.08280000	0.00142991
0.06250000	0.00143089
0.04220000	0.00143200
0.02190000	0.00143280
0.00155000	0.00143385
-0.01875000	0.00143508
-0.03905000	0.00143521
-0.05935000	0.00143667
-0.07970000	0.00143708
-0.1	0.00143738

File: AD004-2_ITO+SnO2+PVSK+C6Br+Spiro+Carbon (Air Quench)  2024-04-18 20-42-52.txt
Device Id	Operator	Recipe
AD004-2_ITO+SnO2+PVSK+C6Br+Spiro+Carbon (Air Quench) 	Unknown	Jacob PVSKT _ 0.077cm^2 (nature recipe).IV

Sample Area	Irradiance	Pre sweep delay	Bias Direction	Max Reverse Bias	Max Forward Bias	Num Sweep Points	Dwell Time	Current Limit	PVIV 10A I-AMP	Average	Dark Current	Rshunt V-Lo	Rshunt V-Hi
0.077170	1.0000	0.2000	0	-0.1000	1.2000	65	10	130	0	1	0	-0.6000	-0.1000

Voc V	Isc A	Jsc mA/cm2	Imax A	Vmax V	Pmax mW	Fill Factor	Efficiency	R at Voc	R at Isc	Power W	RShunt ohms	Cell Temp start	Cell Temp end	Exposure	Time	Date
1.04142	0.00144967	18.7855	0.00126315	0.820259	1.03611	68.6293	13.4263	93.2439	20614.256	0.00133650	NaN	NaN	NaN	5.750	20:42:52	04/18/2024

Vmeas	Imeas
1.2	-0.00213731
1.1797	-0.00183061
1.15935	-0.00152819
1.13905	-0.00123513
1.11875	-0.00094751
1.09845	-0.00067700
1.0781	-0.00041820
1.0578	-0.00017400
1.0375	0.00005224
1.0172	0.00026065
0.99685	0.00045324
0.97655	0.00062323
0.95625	0.00077058
0.93595	0.00089527
0.9156	0.00099872
0.8953	0.00107468
0.875	0.00114431
0.8547	0.00119779
0.83435	0.00123963
0.81405	0.00127178
0.79375	0.00129678
0.77345	0.00131652
0.7531	0.00133275
0.7328	0.00134586
0.7125	0.00135647
0.6922	0.00136498
0.67185	0.00137366
0.65155	0.00137967
0.63125	0.00138567
0.61095	0.00139124
0.5906	0.00139505
0.5703	0.00140023
0.55	0.00140412
0.5297	0.00140719
0.50935	0.00141031
0.48905	0.00141336
0.46875	0.00141618
0.44845	0.00141913
0.4281	0.00142187
0.4078	0.00142390
0.3875	0.00142605
0.3672	0.00142771
0.3469	0.00142932
0.32655	0.00143158
0.30625	0.00143303
0.28595	0.00143438
0.26565	0.00143598
0.2453	0.00143750
0.225	0.00143877
0.2047	0.00144030
0.1844	0.00144153
0.16405	0.00144257
0.14375	0.00144387
0.12345	0.00144486
0.10315	0.00144564
0.08280000	0.00144652
0.06250000	0.00144730
0.04220000	0.00144802
0.02190000	0.00144885
0.00155000	0.00144980
-0.01875000	0.00145068
-0.03905000	0.00145115
-0.05935000	0.00145180
-0.07970000	0.00145247
-0.1	0.00145309

File: AD005-1_ITO+SnO2+PVSK+C6Br+Spiro+Carbon (Air Quench)  2024-04-18 20-48-16.txt
Device Id	Operator	Recipe
AD005-1_ITO+SnO2+PVSK+C6Br+Spiro+Carbon (Air Quench) 	Unknown	Jacob PVSKT _ 0.077cm^2 (nature recipe).IV

Sample Area	Irradiance	Pre sweep delay	Bias Direction	Max Reverse Bias	Max Forward Bias	Num Sweep Points	Dwell Time	Current Limit	PVIV 10A I-AMP	Average	Dark Current	Rshunt V-Lo	Rshunt V-Hi
0.077170	1.0000	0.2000	0	-0.1000	1.2000	65	10	130	0	1	0	-0.6000	-0.1000

Voc V	Isc A	Jsc mA/cm2	Imax A	Vmax V	Pmax mW	Fill Factor	Efficiency	R at Voc	R at Isc	Power W	RShunt ohms	Cell Temp start	Cell Temp end	Exposure	Time	Date
1.03877	0.00166138	21.5288	0.00146351	0.80298	1.17517	68.0949	15.2284	93.9424	23111.872	0.00151936	NaN	NaN	NaN	5.750	20:48:16	04/18/2024

Vmeas	Imeas
1.2	-0.00201201
1.1797	-0.00173365
1.15935	-0.00145841
1.13905	-0.00119172
1.11875	-0.00092772
1.09845	-0.00067737
1.0781	-0.00043465
1.0578	-0.00020159
1.0375	0.00002007
1.0172	0.00023069
0.99685	0.00042911
0.97655	0.00061174
0.95625	0.00077800
0.93595	0.00092707
0.9156	0.00104964
0.8953	0.00116355
0.875	0.00125738
0.8547	0.00133385
0.83435	0.00139369
0.81405	0.00144211
0.79375	0.00147931
0.77345	0.00150871
0.7531	0.00153146
0.7328	0.00154868
0.7125	0.00156263
0.6922	0.00157427
0.67185	0.00158274
0.65155	0.00159108
0.63125	0.00159797
0.61095	0.00160385
0.5906	0.00160885
0.5703	0.00161340
0.55	0.00161776
0.5297	0.00162059
0.50935	0.00162417
0.48905	0.00162771
0.46875	0.00163050
0.44845	0.00163204
0.4281	0.00163514
0.4078	0.00163750
0.3875	0.00163931
0.3672	0.00164116
0.3469	0.00164285
0.32655	0.00164369
0.30625	0.00164625
0.28595	0.00164803
0.26565	0.00164889
0.2453	0.00165035
0.225	0.00165212
0.2047	0.00165304
0.1844	0.00165384
0.16405	0.00165471
0.14375	0.00165604
0.12345	0.00165714
0.10315	0.00165799
0.08280000	0.00165890
0.06250000	0.00165943
0.04220000	0.00166013
0.02190000	0.00166094
0.00155000	0.00166164
-0.01875000	0.00166237
-0.03905000	0.00166266
-0.05935000	0.00166270
-0.07970000	0.00166366
-0.1	0.00166442

File: AD005-3_ITO+SnO2+PVSK+C6Br+Spiro+Carbon (Air Quench)  2024-04-18 20-51-22.txt
Device Id	Operator	Recipe
AD005-3_ITO+SnO2+PVSK+C6Br+Spiro+Carbon (Air Quench) 	Unknown	Jacob PVSKT _ 0.077cm^2 (nature recipe).IV

Sample Area	Irradiance	Pre sweep delay	Bias Direction	Max Reverse Bias	Max Forward Bias	Num Sweep Points	Dwell Time	Current Limit	PVIV 10A I-AMP	Average	Dark Current	Rshunt V-Lo	Rshunt V-Hi
0.077170	1.0000	0.2000	0	-0.1000	1.2000	65	10	130	0	1	0	-0.6000	-0.1000

Voc V	Isc A	Jsc mA/cm2	Imax A	Vmax V	Pmax mW	Fill Factor	Efficiency	R at Voc	R at Isc	Power W	RShunt ohms	Cell Temp start	Cell Temp end	Exposure	Time	Date
1.04115	0.00173919	22.5372	0.00149133	0.799673	1.19258	65.8606	15.4539	95.2776	14155.736	0.00157043	NaN	NaN	NaN	5.750	20:51:22	04/18/2024

Vmeas	Imeas
1.2	-0.00196110
1.1797	-0.00168547
1.15935	-0.00141415
1.13905	-0.00115030
1.11875	-0.00089032
1.09845	-0.00064315
1.0781	-0.00040363
1.0578	-0.00017377
1.0375	0.00004483
1.0172	0.00025223
0.99685	0.00044847
0.97655	0.00062853
0.95625	0.00079274
0.93595	0.00094031
0.9156	0.00106242
0.8953	0.00117670
0.875	0.00127156
0.8547	0.00134953
0.83435	0.00141118
0.81405	0.00146270
0.79375	0.00150210
0.77345	0.00153339
0.7531	0.00155887
0.7328	0.00157907
0.7125	0.00159571
0.6922	0.00161036
0.67185	0.00162221
0.65155	0.00163238
0.63125	0.00164195
0.61095	0.00164923
0.5906	0.00165651
0.5703	0.00166388
0.55	0.00166957
0.5297	0.00167508
0.50935	0.00168013
0.48905	0.00168479
0.46875	0.00168940
0.44845	0.00169277
0.4281	0.00169677
0.4078	0.00170118
0.3875	0.00170383
0.3672	0.00170747
0.3469	0.00170994
0.32655	0.00171188
0.30625	0.00171483
0.28595	0.00171744
0.26565	0.00171930
0.2453	0.00172181
0.225	0.00172332
0.2047	0.00172515
0.1844	0.00172747
0.16405	0.00172824
0.14375	0.00173018
0.12345	0.00173176
0.10315	0.00173263
0.08280000	0.00173479
0.06250000	0.00173663
0.04220000	0.00173726
0.02190000	0.00173786
0.00155000	0.00173926
-0.01875000	0.00174160
-0.03905000	0.00174154
-0.05935000	0.00174302
-0.07970000	0.00174241
-0.1	0.00174358

File: AD006-2_ITO+SnO2+PVSK+C6Br+Spiro+Carbon (Air Quench)  2024-04-18 20-55-54.txt
Device Id	Operator	Recipe
AD006-2_ITO+SnO2+PVSK+C6Br+Spiro+Carbon (Air Quench) 	Unknown	Jacob PVSKT _ 0.077cm^2 (nature recipe).IV

Sample Area	Irradiance	Pre sweep delay	Bias Direction	Max Reverse Bias	Max Forward Bias	Num Sweep Points	Dwell Time	Current Limit	PVIV 10A I-AMP	Average	Dark Current	Rshunt V-Lo	Rshunt V-Hi
0.077170	1.0000	0.2000	0	-0.1000	1.2000	65	10	130	0	1	0	-0.6000	-0.1000

Voc V	Isc A	Jsc mA/cm2	Imax A	Vmax V	Pmax mW	Fill Factor	Efficiency	R at Voc	R at Isc	Power W	RShunt ohms	Cell Temp start	Cell Temp end	Exposure	Time	Date
0.935348	0.00168599	21.8477	0.00115938	0.647788	0.751032	47.6245	9.7322	157.945	2044.818	0.00116520	NaN	NaN	NaN	5.812	20:55:54	04/18/2024

Vmeas	Imeas
1.2	-0.00183198
1.1797	-0.00167617
1.15935	-0.00152279
1.13905	-0.00136740
1.11875	-0.00121685
1.09845	-0.00108002
1.0781	-0.00093409
1.0578	-0.00080944
1.0375	-0.00064876
1.0172	-0.00052228
0.99685	-0.00038004
0.97655	-0.00025775
0.95625	-0.00014252
0.93595	0.00000000
0.9156	0.00012234
0.8953	0.00025444
0.875	0.00037231
0.8547	0.00048641
0.83435	0.00058782
0.81405	0.00068334
0.79375	0.00078107
0.77345	0.00084156
0.7531	0.00091462
0.7328	0.00096543
0.7125	0.00103692
0.6922	0.00106657
0.67185	0.00111158
0.65155	0.00115388
0.63125	0.00119032
0.61095	0.00122248
0.5906	0.00125092
0.5703	0.00128146
0.55	0.00131361
0.5297	0.00133780
0.50935	0.00138170
0.48905	0.00138040
0.46875	0.00139791
0.44845	0.00141515
0.4281	0.00143161
0.4078	0.00144808
0.3875	0.00146499
0.3672	0.00147812
0.3469	0.00149224
0.32655	0.00150497
0.30625	0.00151809
0.28595	0.00153199
0.26565	0.00154449
0.2453	0.00155631
0.225	0.00156778
0.2047	0.00157913
0.1844	0.00159056
0.16405	0.00160391
0.14375	0.00161632
0.12345	0.00162737
0.10315	0.00163747
0.08280000	0.00164718
0.06250000	0.00165738
0.04220000	0.00166690
0.02190000	0.00167637
0.00155000	0.00168627
-0.01875000	0.00169572
-0.03905000	0.00170482
-0.05935000	0.00171422
-0.07970000	0.00172314
-0.1	0.00173269